ENLIGHTEN Version,1.7.2
Measurement ID,20190904-111350-167384-WP-00438
Serial Number,WP-00438
Label,11:13:50 WP-00438
Integration Time,400
Timestamp,13:50.2
Note,
Temperature,0
CCD C0,807.1400146
CCD C1,0.117610998
CCD C2,-1.64E-05
CCD C3,2.33E-09
CCD Offset,0
CCD Gain,8
Laser Wavelength,785
Laser Enable,TRUE
Laser Power,100
Laser Temperature,0
Pixel Count,1952
,
Wavenumber,Processed
349.43,0
351.23,0
353.04,0
354.84,16201
356.64,14806
358.44,16530
360.24,15235
362.04,16587
363.84,15515
365.64,17276
367.43,15654
369.23,17326
371.02,15807
372.81,17076
374.6,16030
376.39,16967
378.18,15505
379.97,17007
381.76,15718
383.55,17141
385.33,15741
387.11,16991
388.9,16121
390.68,17118
392.46,15910
394.24,17298
396.02,16093
397.8,17093
399.58,16128
401.35,17269
403.13,16068
404.9,17697
406.68,16559
408.45,17797
410.22,16965
411.99,18137
413.76,17295
415.53,18540
417.3,17411
419.06,18998
420.83,18221
422.59,19387
424.35,18643
426.12,20110
427.88,19318
429.64,20244
431.4,20075
433.16,20738
434.91,20043
436.67,21569
438.43,20410
440.18,21945
441.93,20897
443.69,21894
445.44,20925
447.19,21933
448.94,20936
450.69,21808
452.43,20541
454.18,21564
455.92,20295
457.67,20779
459.41,19443
461.16,20571
462.9,19109
464.64,19690
466.38,18715
468.12,18987
469.85,17770
471.59,18729
473.33,17680
475.06,18121
476.8,17538
478.53,17705
480.26,16888
481.99,17438
483.72,16611
485.45,17166
487.18,16462
488.91,17200
490.63,16157
492.36,16981
494.08,16178
495.8,16623
497.53,16071
499.25,16750
500.97,16030
502.69,16517
504.41,15830
506.12,16693
507.84,16080
509.56,16618
511.27,15827
512.98,16922
514.7,15988
516.41,16811
518.12,15902
519.83,16834
521.54,15885
523.25,16957
524.95,15927
526.66,16693
528.36,15859
530.07,16742
531.77,15648
533.47,16713
535.18,15823
536.88,17171
538.58,15950
540.27,16596
541.97,16151
543.67,17077
545.36,16434
547.06,16846
548.75,16305
550.45,17017
552.14,16350
553.83,17394
555.52,16401
557.21,17144
558.9,16773
560.58,17694
562.27,16615
563.96,17450
565.64,17167
567.32,18100
569.01,17336
570.69,18527
572.37,17396
574.05,18821
575.73,18039
577.41,19089
579.08,18455
580.76,19888
582.44,18819
584.11,20081
585.78,19426
587.46,20803
589.13,20181
590.8,21084
592.47,20158
594.14,21621
595.81,21167
597.47,22504
599.14,21561
600.8,22916
602.47,21472
604.13,22748
605.79,21847
607.46,22939
609.12,21838
610.78,22578
612.44,21668
614.09,22556
615.75,21105
617.41,22185
619.06,21162
620.72,21803
622.37,20626
624.02,20904
625.67,20069
627.33,20326
628.97,19264
630.62,20046
632.27,18866
633.92,19524
635.57,18333
637.21,18573
638.86,17624
640.5,18204
642.14,17274
643.78,17460
645.42,16663
647.06,17346
648.7,16502
650.34,17012
651.98,16058
653.62,16819
655.25,15596
656.89,16362
658.52,15571
660.15,15806
661.79,15283
663.42,15578
665.05,15041
666.68,15623
668.31,14867
669.93,15248
671.56,14633
673.19,14933
674.81,14650
676.43,14829
678.06,14112
679.68,14508
681.3,14353
682.92,14363
684.54,14011
686.16,14147
687.78,13936
689.4,14243
691.01,13676
692.63,14277
694.24,13797
695.86,14067
697.47,13410
699.08,13993
700.69,13628
702.3,14039
703.91,13628
705.52,13941
707.13,13359
708.74,13760
710.34,13481
711.95,13830
713.55,13230
715.15,13659
716.76,13201
718.36,13677
719.96,12916
721.56,13687
723.16,13139
724.76,13500
726.35,12955
727.95,13531
729.55,12917
731.14,13555
732.73,12948
734.33,13632
735.92,13084
737.51,13348
739.1,12750
740.69,13135
742.28,12998
743.87,13233
745.46,12776
747.04,13266
748.63,12854
750.21,13032
751.8,12715
753.38,13260
754.96,12767
756.54,13104
758.12,12514
759.7,12920
761.28,12429
762.86,13080
764.44,12554
766.01,13108
767.59,12674
769.16,13518
770.74,12720
772.31,13034
773.88,12731
775.45,13199
777.02,12639
778.59,13272
780.16,12582
781.73,13224
783.3,12787
784.86,13193
786.43,12825
787.99,13623
789.56,12681
791.12,13215
792.68,12692
794.24,13296
795.8,12738
797.36,13409
798.92,12841
800.48,13460
802.04,12644
803.59,13350
805.15,12681
806.7,13600
808.26,12835
809.81,13407
811.36,13024
812.91,13578
814.46,13401
816.01,14004
817.56,13530
819.11,14342
820.66,13615
822.2,14137
823.75,13603
825.3,14583
826.84,13937
828.38,14323
829.93,13832
831.47,14408
833.01,13913
834.55,14651
836.09,14053
837.63,14945
839.16,13905
840.7,14900
842.24,14156
843.77,14709
845.31,13823
846.84,14550
848.37,13905
849.9,14497
851.44,13988
852.97,14636
854.5,13700
856.03,14782
857.55,14128
859.08,14663
860.61,13889
862.13,14726
863.66,14060
865.18,14539
866.7,13957
868.23,14636
869.75,13980
871.27,14726
872.79,14245
874.31,14985
875.83,13977
877.35,14659
878.86,14178
880.38,14841
881.89,14114
883.41,14758
884.92,14024
886.44,14823
887.95,13744
889.46,14377
890.97,13705
892.48,14638
893.99,13810
895.5,14382
897.01,13889
898.51,14522
900.02,13942
901.52,14416
903.03,13454
904.53,14235
906.04,13617
907.54,13961
909.04,13538
910.54,14136
912.04,13108
913.54,14152
915.04,13344
916.53,13749
918.03,13246
919.53,13829
921.02,13217
922.52,13701
924.01,12907
925.5,13219
927,13135
928.49,13539
929.98,12927
931.47,13288
932.96,12697
934.44,13330
935.93,12539
937.42,13173
938.9,12429
940.39,13221
941.87,12127
943.36,12685
944.84,12366
946.32,12829
947.8,12394
949.29,12492
950.77,12290
952.24,12489
953.72,12324
955.2,12495
956.68,12247
958.15,12373
959.63,11771
961.1,12165
962.58,11574
964.05,11930
965.52,11886
967,11794
968.47,11443
969.94,11875
971.41,11384
972.87,11707
974.34,11608
975.81,11755
977.28,11069
978.74,11586
980.21,11258
981.67,11489
983.13,10969
984.6,11378
986.06,11120
987.52,11575
988.98,10938
990.44,11254
991.9,11107
993.36,11395
994.82,11272
996.27,11349
997.73,10944
999.18,11349
1000.64,11036
1002.09,11513
1003.55,11076
1005,11341
1006.45,10956
1007.9,11082
1009.35,10940
1010.8,11294
1012.25,11011
1013.7,11148
1015.14,10741
1016.59,10945
1018.04,10514
1019.48,10980
1020.93,10396
1022.37,10799
1023.81,10937
1025.25,10963
1026.7,10891
1028.14,11002
1029.58,10709
1031.02,11349
1032.45,11129
1033.89,11684
1035.33,11554
1036.77,12137
1038.2,12190
1039.64,13049
1041.07,13102
1042.5,13829
1043.94,13923
1045.37,14780
1046.8,14977
1048.23,16175
1049.66,15718
1051.09,17009
1052.52,17268
1053.95,18353
1055.37,18748
1056.8,19991
1058.23,20107
1059.65,21200
1061.08,20731
1062.5,21551
1063.92,20432
1065.34,20830
1066.76,19422
1068.19,19759
1069.61,18323
1071.02,17950
1072.44,16967
1073.86,17204
1075.28,15823
1076.69,16018
1078.11,14969
1079.53,15365
1080.94,14354
1082.35,14659
1083.77,13819
1085.18,14236
1086.59,13552
1088,13731
1089.41,13347
1090.82,13890
1092.23,13059
1093.64,13321
1095.04,12937
1096.45,13295
1097.86,12588
1099.26,13564
1100.67,12958
1102.07,13803
1103.47,13268
1104.88,14370
1106.28,14305
1107.68,15191
1109.08,15574
1110.48,16037
1111.88,16001
1113.28,16979
1114.67,17006
1116.07,18120
1117.47,17664
1118.86,19319
1120.26,19389
1121.65,20599
1123.05,20649
1124.44,22273
1125.83,22356
1127.22,23330
1128.61,22908
1130,23503
1131.39,22827
1132.78,22766
1134.17,21299
1135.56,21362
1136.94,19678
1138.33,19253
1139.72,17762
1141.1,17320
1142.48,16503
1143.87,16508
1145.25,15278
1146.63,15537
1148.01,14862
1149.39,14823
1150.77,14049
1152.15,14428
1153.53,14120
1154.91,14462
1156.29,13974
1157.66,14132
1159.04,13958
1160.41,13931
1161.79,13826
1163.16,14690
1164.54,14099
1165.91,14834
1167.28,14186
1168.65,14683
1170.02,14299
1171.39,15089
1172.76,14391
1174.13,14838
1175.5,14463
1176.86,14342
1178.23,14229
1179.6,14246
1180.96,13472
1182.33,13951
1183.69,13443
1185.05,13920
1186.42,13217
1187.78,13266
1189.14,13167
1190.5,13383
1191.86,12947
1193.22,13171
1194.58,12734
1195.94,12829
1197.29,12319
1198.65,12800
1200.01,12519
1201.36,12404
1202.72,12381
1204.07,12386
1205.42,12015
1206.78,12348
1208.13,11787
1209.48,12075
1210.83,11707
1212.18,11884
1213.53,11698
1214.88,11713
1216.23,11417
1217.58,11517
1218.92,11351
1220.27,11677
1221.61,11084
1222.96,11542
1224.3,11024
1225.65,11216
1226.99,10914
1228.33,11007
1229.67,10815
1231.01,11072
1232.36,10975
1233.7,11206
1235.03,10839
1236.37,11064
1237.71,10795
1239.05,10957
1240.38,10219
1241.72,10683
1243.06,10614
1244.39,10828
1245.72,10662
1247.06,10968
1248.39,10387
1249.72,10726
1251.05,10505
1252.39,10813
1253.72,10618
1255.05,11024
1256.37,10857
1257.7,10818
1259.03,10319
1260.36,11023
1261.68,11058
1263.01,11462
1264.33,11035
1265.66,11594
1266.98,11641
1268.31,12287
1269.63,12531
1270.95,13162
1272.27,13455
1273.59,14369
1274.91,14169
1276.23,15224
1277.55,15146
1278.87,16041
1280.19,15888
1281.51,17053
1282.82,16753
1284.14,17672
1285.45,17881
1286.77,18797
1288.08,19025
1289.39,20747
1290.71,21209
1292.02,22783
1293.33,22852
1294.64,24596
1295.95,23994
1297.26,24920
1298.57,23959
1299.88,23725
1301.19,22754
1302.49,21818
1303.8,20512
1305.11,19203
1306.41,17741
1307.72,17201
1309.02,15928
1310.32,15779
1311.63,14332
1312.93,13985
1314.23,13391
1315.53,12833
1316.83,12141
1318.13,12051
1319.43,11269
1320.73,11557
1322.03,10869
1323.32,10889
1324.62,10144
1325.92,10263
1327.21,9798
1328.51,9745
1329.8,9211
1331.1,9216
1332.39,9133
1333.68,9217
1334.97,8756
1336.27,8764
1337.56,8410
1338.85,8965
1340.14,8335
1341.42,8637
1342.71,8508
1344,8688
1345.29,8339
1346.57,8806
1347.86,8372
1349.15,8786
1350.43,8316
1351.71,8677
1353,8353
1354.28,8735
1355.56,8322
1356.85,8930
1358.13,8657
1359.41,8703
1360.69,8522
1361.97,8979
1363.25,8659
1364.52,9037
1365.8,8729
1367.08,9196
1368.35,8802
1369.63,9196
1370.91,8912
1372.18,9119
1373.45,8848
1374.73,8986
1376,8950
1377.27,9001
1378.54,8654
1379.82,8866
1381.09,8745
1382.36,8864
1383.63,8529
1384.89,8940
1386.16,8486
1387.43,9137
1388.7,9050
1389.96,9287
1391.23,9218
1392.5,9647
1393.76,9487
1395.02,10197
1396.29,9897
1397.55,10264
1398.81,10521
1400.08,11040
1401.34,10920
1402.6,11436
1403.86,11491
1405.12,12292
1406.38,12299
1407.63,12749
1408.89,13228
1410.15,13964
1411.41,14178
1412.66,15109
1413.92,15880
1415.17,17316
1416.43,17729
1417.68,19006
1418.93,18971
1420.19,20324
1421.44,20627
1422.69,21276
1423.94,21355
1425.19,22069
1426.44,22152
1427.69,23042
1428.94,22993
1430.19,23711
1431.43,23544
1432.68,24862
1433.93,25339
1435.17,26166
1436.42,27049
1437.66,27800
1438.91,28428
1440.15,29715
1441.39,29865
1442.64,30098
1443.88,30606
1445.12,30883
1446.36,30486
1447.6,30327
1448.84,30087
1450.08,29079
1451.32,28446
1452.56,28181
1453.79,27452
1455.03,27064
1456.27,26059
1457.5,26065
1458.74,25754
1459.97,25256
1461.21,24777
1462.44,24432
1463.67,23804
1464.91,23539
1466.14,22890
1467.37,22427
1468.6,21603
1469.83,20975
1471.06,20744
1472.29,19522
1473.52,18647
1474.75,18271
1475.97,17178
1477.2,16586
1478.43,16013
1479.65,15579
1480.88,14678
1482.1,14250
1483.33,13517
1484.55,13133
1485.77,12682
1487,12562
1488.22,11955
1489.44,11687
1490.66,10952
1491.88,10789
1493.1,10683
1494.32,10746
1495.54,10343
1496.76,9956
1497.97,9670
1499.19,9788
1500.41,9451
1501.62,9508
1502.84,9182
1504.05,9172
1505.27,8738
1506.48,8923
1507.7,8523
1508.91,8804
1510.12,8540
1511.33,8838
1512.54,8425
1513.75,8527
1514.96,8296
1516.17,8538
1517.38,8003
1518.59,8391
1519.8,8114
1521.01,8165
1522.21,8029
1523.42,8147
1524.63,7851
1525.83,7941
1527.04,7630
1528.24,8019
1529.44,7638
1530.65,7920
1531.85,7309
1533.05,7574
1534.25,7532
1535.45,7649
1536.65,7486
1537.85,7736
1539.05,7329
1540.25,7374
1541.45,7385
1542.65,7454
1543.85,7344
1545.04,7342
1546.24,6945
1547.44,6955
1548.63,7105
1549.83,7297
1551.02,6810
1552.21,7093
1553.41,6764
1554.6,6963
1555.79,6893
1556.98,7010
1558.17,6815
1559.37,6810
1560.56,6602
1561.74,6751
1562.93,6665
1564.12,6676
1565.31,6513
1566.5,6781
1567.68,6482
1568.87,6662
1570.06,6206
1571.24,6458
1572.43,6192
1573.61,6358
1574.8,6169
1575.98,6359
1577.16,6028
1578.34,6369
1579.53,6129
1580.71,6365
1581.89,6190
1583.07,6199
1584.25,5876
1585.43,6263
1586.61,5764
1587.78,5994
1588.96,6054
1590.14,6125
1591.32,6008
1592.49,5965
1593.67,6128
1594.84,6048
1596.02,5958
1597.19,6076
1598.37,5804
1599.54,5976
1600.71,5929
1601.88,6104
1603.06,5837
1604.23,5970
1605.4,5901
1606.57,6039
1607.74,5950
1608.91,6288
1610.07,6046
1611.24,6111
1612.41,5841
1613.58,6250
1614.74,5921
1615.91,6067
1617.08,5827
1618.24,6022
1619.41,5932
1620.57,5858
1621.73,5810
1622.9,5946
1624.06,5739
1625.22,5847
1626.38,5819
1627.54,5813
1628.7,5581
1629.87,5700
1631.02,5469
1632.18,5808
1633.34,5589
1634.5,5555
1635.66,5326
1636.82,5637
1637.97,5306
1639.13,5353
1640.28,5272
1641.44,5542
1642.59,5390
1643.75,5331
1644.9,5295
1646.06,5249
1647.21,5108
1648.36,5169
1649.51,5201
1650.66,5021
1651.81,4956
1652.97,4981
1654.11,4880
1655.26,5178
1656.41,4939
1657.56,5052
1658.71,5046
1659.86,5025
1661,4981
1662.15,4942
1663.3,5055
1664.44,5058
1665.59,4877
1666.73,5163
1667.88,4846
1669.02,4886
1670.16,4862
1671.3,5012
1672.45,4812
1673.59,5004
1674.73,4902
1675.87,4916
1677.01,5009
1678.15,4827
1679.29,4881
1680.43,5045
1681.57,4958
1682.7,5112
1683.84,4899
1684.98,5015
1686.12,4825
1687.25,5124
1688.39,4798
1689.52,5254
1690.66,4989
1691.79,5065
1692.92,4926
1694.06,5003
1695.19,4903
1696.32,4955
1697.45,4986
1698.58,5196
1699.72,4939
1700.85,5123
1701.98,5069
1703.1,4928
1704.23,5044
1705.36,5140
1706.49,4866
1707.62,5291
1708.74,4936
1709.87,5147
1711,5053
1712.12,5122
1713.25,4957
1714.37,5014
1715.5,4970
1716.62,5072
1717.74,4892
1718.87,5186
1719.99,5165
1721.11,4960
1722.23,5100
1723.35,4994
1724.47,4919
1725.59,5151
1726.71,4894
1727.83,5156
1728.95,5108
1730.07,4991
1731.19,4911
1732.3,5187
1733.42,4983
1734.54,5040
1735.65,4972
1736.77,5148
1737.88,4828
1739,5167
1740.11,5017
1741.23,5197
1742.34,5005
1743.45,5129
1744.56,4891
1745.68,4986
1746.79,4768
1747.9,5137
1749.01,4750
1750.12,5009
1751.23,4849
1752.34,5075
1753.45,4773
1754.55,5011
1755.66,4951
1756.77,5074
1757.88,4828
1758.98,4776
1760.09,4924
1761.19,4900
1762.3,4761
1763.4,4740
1764.51,4770
1765.61,4949
1766.71,4682
1767.82,4725
1768.92,4697
1770.02,4787
1771.12,4555
1772.22,4890
1773.32,4451
1774.42,4775
1775.52,4579
1776.62,4584
1777.72,4639
1778.82,4749
1779.92,4530
1781.01,4523
1782.11,4394
1783.21,4811
1784.3,4352
1785.4,4535
1786.5,4431
1787.59,4576
1788.68,4419
1789.78,4611
1790.87,4462
1791.96,4444
1793.06,4426
1794.15,4435
1795.24,4197
1796.33,4281
1797.42,4283
1798.51,4398
1799.6,4141
1800.69,4173
1801.78,4201
1802.87,4137
1803.96,4003
1805.05,4104
1806.13,4007
1807.22,4150
1808.31,3931
1809.39,4027
1810.48,4070
1811.56,4050
1812.65,3992
1813.73,3859
1814.82,3865
1815.9,3869
1816.98,3773
1818.07,3867
1819.15,3759
1820.23,3908
1821.31,3813
1822.39,3747
1823.47,3527
1824.55,3772
1825.63,3554
1826.71,3654
1827.79,3654
1828.87,3524
1829.95,3301
1831.02,3490
1832.1,3323
1833.18,3568
1834.25,3306
1835.33,3300
1836.4,3207
1837.48,3242
1838.55,3203
1839.63,3243
1840.7,3184
1841.77,3213
1842.85,3328
1843.92,3193
1844.99,3181
1846.06,3269
1847.13,2992
1848.2,3065
1849.28,2868
1850.34,3082
1851.41,3037
1852.48,3133
1853.55,2895
1854.62,2867
1855.69,2794
1856.76,2788
1857.82,2755
1858.89,2784
1859.95,3011
1861.02,2813
1862.09,2900
1863.15,2688
1864.21,2699
1865.28,2753
1866.34,2857
1867.41,2739
1868.47,2642
1869.53,2700
1870.59,2454
1871.65,2672
1872.71,2575
1873.78,2771
1874.84,2612
1875.9,2475
1876.96,2481
1878.01,2658
1879.07,2425
1880.13,2617
1881.19,2503
1882.25,2596
1883.3,2492
1884.36,2443
1885.42,2440
1886.47,2447
1887.53,2419
1888.58,2385
1889.64,2427
1890.69,2499
1891.74,2272
1892.8,2482
1893.85,2298
1894.9,2569
1895.96,2353
1897.01,2472
1898.06,2459
1899.11,2486
1900.16,2275
1901.21,2443
1902.26,2210
1903.31,2277
1904.36,2209
1905.41,2342
1906.45,2250
1907.5,2311
1908.55,2246
1909.6,2284
1910.64,2263
1911.69,2360
1912.73,2127
1913.78,2168
1914.82,2246
1915.87,2327
1916.91,2312
1917.96,2216
1919,2191
1920.04,2258
1921.08,2325
1922.13,2241
1923.17,2292
1924.21,2230
1925.25,2251
1926.29,2184
1927.33,2124
1928.37,2309
1929.41,2143
1930.45,2130
1931.49,2216
1932.53,2282
1933.56,2098
1934.6,2334
1935.64,2172
1936.67,2328
1937.71,2162
1938.75,2325
1939.78,2227
1940.82,2150
1941.85,2067
1942.89,2229
1943.92,2142
1944.95,2151
1945.99,2119
1947.02,2109
1948.05,2122
1949.08,2252
1950.11,2145
1951.15,2140
1952.18,2067
1953.21,2203
1954.24,2089
1955.27,2176
1956.3,2163
1957.32,2280
1958.35,2121
1959.38,2225
1960.41,2039
1961.44,2124
1962.46,2251
1963.49,2193
1964.51,1996
1965.54,2226
1966.57,2078
1967.59,2219
1968.62,2097
1969.64,2218
1970.66,2044
1971.69,2149
1972.71,2083
1973.73,2226
1974.75,2028
1975.78,2195
1976.8,2057
1977.82,2212
1978.84,2218
1979.86,2182
1980.88,1960
1981.9,2164
1982.92,2012
1983.94,2222
1984.96,2086
1985.98,2219
1986.99,1983
1988.01,2220
1989.03,1984
1990.04,2134
1991.06,2058
1992.08,2086
1993.09,1949
1994.11,2077
1995.12,2034
1996.14,1954
1997.15,2055
1998.16,2143
1999.18,2036
2000.19,2112
2001.2,2014
2002.21,2150
2003.23,2051
2004.24,2123
2005.25,2128
2006.26,2242
2007.27,2102
2008.28,2153
2009.29,1996
2010.3,2080
2011.31,1986
2012.32,2153
2013.32,2141
2014.33,2148
2015.34,2029
2016.35,2252
2017.35,2146
2018.36,2076
2019.36,2014
2020.37,2195
2021.38,1996
2022.38,2148
2023.38,1994
2024.39,2239
2025.39,2230
2026.4,2172
2027.4,2050
2028.4,2217
2029.4,2082
2030.41,2166
2031.41,2044
2032.41,2129
2033.41,1953
2034.41,2259
2035.41,1964
2036.41,2182
2037.41,1990
2038.41,2279
2039.41,1967
2040.4,2085
2041.4,2130
2042.4,2100
2043.4,2212
2044.39,2144
2045.39,2012
2046.39,2191
2047.38,1913
2048.38,2091
2049.37,1957
2050.37,2027
2051.36,2022
2052.36,2031
2053.35,2085
2054.34,2043
2055.34,2088
2056.33,2169
2057.32,2003
2058.31,2111
2059.3,1984
2060.3,2085
2061.29,1937
2062.28,2053
2063.27,1900
2064.26,1987
2065.25,1933
2066.23,1972
2067.22,1986
2068.21,1994
2069.2,1894
2070.19,1956
2071.17,1783
2072.16,1989
2073.15,1940
2074.13,1852
2075.12,1856
2076.11,1988
2077.09,1809
2078.08,1931
2079.06,1798
2080.04,1823
2081.03,1814
2082.01,1815
2083,1784
2083.98,1804
2084.96,1824
2085.94,1806
2086.92,1690
2087.91,1623
2088.89,1789
2089.87,1700
2090.85,1506
2091.83,1634
2092.81,1571
2093.79,1716
2094.77,1658
2095.74,1751
2096.72,1618
2097.7,1713
2098.68,1642
2099.66,1817
2100.63,1689
2101.61,1799
2102.59,1725
2103.56,1742
2104.54,1620
2105.51,1650
2106.49,1559
2107.46,1723
2108.44,1554
2109.41,1574
2110.38,1574
2111.36,1573
2112.33,1537
2113.3,1568
2114.27,1527
2115.25,1644
2116.22,1494
2117.19,1656
2118.16,1506
2119.13,1658
2120.1,1469
2121.07,1483
2122.04,1448
2123.01,1571
2123.98,1407
2124.95,1467
2125.91,1509
2126.88,1560
2127.85,1453
2128.82,1553
2129.78,1456
2130.75,1568
2131.72,1261
2132.68,1492
2133.65,1379
2134.61,1435
2135.58,1353
2136.54,1437
2137.51,1278
2138.47,1478
2139.43,1340
2140.4,1482
2141.36,1385
2142.32,1447
2143.29,1395
2144.25,1355
2145.21,1427
2146.17,1338
2147.13,1348
2148.09,1452
2149.05,1356
2150.01,1450
2150.97,1193
2151.93,1411
2152.89,1326
2153.85,1368
2154.81,1332
2155.76,1421
2156.72,1374
2157.68,1356
2158.64,1334
2159.59,1392
2160.55,1325
2161.51,1414
2162.46,1366
2163.42,1468
2164.37,1302
2165.33,1446
2166.28,1435
2167.24,1588
2168.19,1438
2169.14,1452
2170.1,1446
2171.05,1486
2172,1454
2172.95,1562
2173.91,1417
2174.86,1571
2175.81,1397
2176.76,1581
2177.71,1375
2178.66,1580
2179.61,1469
2180.56,1748
2181.51,1590
2182.46,1596
2183.41,1518
2184.36,1625
2185.3,1468
2186.25,1634
2187.2,1614
2188.15,1567
2189.09,1494
2190.04,1605
2190.99,1563
2191.93,1556
2192.88,1464
2193.82,1631
2194.77,1511
2195.71,1663
2196.66,1405
2197.6,1497
2198.54,1441
2199.49,1652
2200.43,1394
2201.37,1484
2202.32,1498
2203.26,1542
2204.2,1532
2205.14,1405
2206.08,1414
2207.02,1642
2207.96,1490
2208.9,1598
2209.84,1467
2210.78,1542
2211.72,1427
2212.66,1543
2213.6,1436
2214.54,1520
2215.48,1494
2216.42,1612
2217.35,1484
2218.29,1509
2219.23,1339
2220.16,1594
2221.1,1579
2222.04,1631
2222.97,1480
2223.91,1595
2224.84,1553
2225.78,1595
2226.71,1590
2227.65,1613
2228.58,1593
2229.51,1596
2230.45,1387
2231.38,1599
2232.31,1589
2233.24,1614
2234.18,1516
2235.11,1665
2236.04,1494
2236.97,1720
2237.9,1654
2238.83,1679
2239.76,1659
2240.69,1556
2241.62,1490
2242.55,1550
2243.48,1519
2244.41,1708
2245.34,1484
2246.27,1597
2247.19,1661
2248.12,1599
2249.05,1520
2249.98,1559
2250.9,1506
2251.83,1665
2252.75,1625
2253.68,1660
2254.61,1504
2255.53,1572
2256.46,1580
2257.38,1692
2258.31,1531
2259.23,1635
2260.15,1611
2261.08,1642
2262,1598
2262.92,1604
2263.85,1560
2264.77,1612
2265.69,1371
2266.61,1476
2267.53,1576
2268.45,1702
2269.37,1540
2270.3,1654
2271.22,1541
2272.14,1501
2273.05,1490
2273.97,1475
2274.89,1374
2275.81,1533
2276.73,1414
2277.65,1554
2278.57,1476
2279.48,1589
2280.4,1649
2281.32,1440
2282.24,1293
2283.15,1548
2284.07,1361
2284.98,1470
2285.9,1402
2286.82,1607
2287.73,1467
2288.65,1502
2289.56,1353
2290.47,1407
2291.39,1421
2292.3,1461
2293.21,1424
2294.13,1392
2295.04,1394
2295.95,1412
2296.87,1398
2297.78,1370
2298.69,1319
2299.6,1386
2300.51,1262
2301.42,1384
2302.33,1415
2303.24,1404
2304.15,1296
2305.06,1228
2305.97,1326
2306.88,1251
2307.79,1362
2308.7,1352
2309.61,1298
2310.51,1232
2311.42,1162
2312.33,1295
2313.24,1207
2314.14,1297
2315.05,1277
2315.96,1157
2316.86,1141
2317.77,1247
2318.67,1160
2319.58,1206
2320.48,1045
2321.39,1263
2322.29,1123
2323.2,1171
2324.1,1167
2325,1117
2325.91,1056
2326.81,1202
2327.71,969
2328.62,1165
2329.52,1067
2330.42,1040
2331.32,989
2332.22,1108
2333.12,893
2334.03,1122
2334.93,904
2335.83,1097
2336.73,978
2337.63,1083
2338.53,980
2339.42,1001
2340.32,822
2341.22,1053
2342.12,883
2343.02,966
2343.92,859
2344.81,924
2345.71,1006
2346.61,954
2347.51,888
2348.4,940
2349.3,863
2350.19,972
2351.09,953
2351.98,962
2352.88,804
2353.77,975
2354.67,840
2355.56,873
2356.46,883
2357.35,956
2358.25,930
2359.14,926
2360.03,778
2360.92,911
2361.82,917
2362.71,705
2363.6,833
2364.49,986
2365.38,808
2366.28,814
2367.17,796
2368.06,903
2368.95,825
2369.84,828
2370.73,882
2371.62,922
2372.51,789
2373.4,861
2374.28,769
2375.17,919
2376.06,794
2376.95,898
2377.84,774
2378.72,889
2379.61,735
2380.5,772
2381.39,748
2382.27,785
2383.16,777
2384.04,811
2384.93,729
2385.81,758
2386.7,712
2387.59,811
2388.47,723
2389.35,915
2390.24,746
2391.12,782
2392.01,809
2392.89,852
2393.77,746
2394.66,788
2395.54,728
2396.42,918
2397.3,705
2398.18,854
2399.07,828
2399.95,815
2400.83,760
2401.71,913
2402.59,775
2403.47,918
2404.35,730
2405.23,933
2406.11,798
2406.99,878
2407.87,824
2408.75,883
2409.62,729
2410.5,904
2411.38,784
2412.26,865
2413.14,812
2414.01,939
2414.89,801
2415.77,851
2416.64,847
2417.52,889
2418.4,827
2419.27,844
2420.15,869
2421.02,915
2421.9,835
2422.77,921
2423.65,833
2424.52,882
2425.4,780
2426.27,982
2427.14,798
2428.02,935
2428.89,828
2429.76,964
2430.64,817
2431.51,903
2432.38,898
2433.25,926
2434.12,861
2434.99,979
2435.87,851
2436.74,906
2437.61,800
2438.48,943
2439.35,846
2440.22,925
2441.09,847
2441.96,925
2442.83,755
2443.69,996
2444.56,895
2445.43,876
2446.3,892
2447.17,864
2448.04,735
2448.9,942
2449.77,853
2450.64,889
2451.5,767
2452.37,960
2453.24,835
2454.1,930
2454.97,829
2455.83,940
2456.7,791
2457.56,916
2458.43,857
2459.29,907
2460.16,868
2461.02,790
2461.89,802
2462.75,946
2463.61,824
2464.48,957
2465.34,804
2466.2,945
2467.06,733
2467.93,945
2468.79,820
2469.65,869
2470.51,770
2471.37,901
2472.23,827
2473.1,788
2473.96,853
2474.82,831
2475.68,823
2476.54,945
2477.4,913
2478.26,986
2479.11,768
2479.97,796
2480.83,784
2481.69,972
2482.55,815
2483.41,944
2484.26,804
2485.12,971
2485.98,724
2486.84,932
2487.69,788
2488.55,919
2489.41,860
2490.26,910
2491.12,868
2491.97,946
2492.83,784
2493.68,894
2494.54,774
2495.39,950
2496.25,834
2497.1,897
2497.96,734
2498.81,896
2499.67,805
2500.52,853
2501.37,703
2502.22,833
2503.08,766
2503.93,962
2504.78,768
2505.63,915
2506.49,685
2507.34,900
2508.19,773
2509.04,775
2509.89,787
2510.74,878
2511.59,745
2512.44,994
2513.29,816
2514.14,856
2514.99,853
2515.84,838
2516.69,677
2517.54,823
2518.39,692
2519.24,776
2520.08,684
2520.93,757
2521.78,774
2522.63,759
2523.48,740
2524.32,721
2525.17,504
2526.02,734
2526.86,706
2527.71,796
2528.56,756
2529.4,753
2530.25,722
2531.09,699
2531.94,687
2532.78,883
2533.63,660
2534.47,792
2535.32,585
2536.16,703
2537,628
2537.85,614
2538.69,732
2539.53,737
2540.38,685
2541.22,808
2542.06,733
2542.9,735
2543.75,505
2544.59,721
2545.43,560
2546.27,663
2547.11,626
2547.95,731
2548.79,581
2549.64,856
2550.48,578
2551.32,751
2552.16,622
2553,654
2553.84,573
2554.67,697
2555.51,505
2556.35,651
2557.19,539
2558.03,725
2558.87,681
2559.71,668
2560.54,602
2561.38,767
2562.22,534
2563.06,742
2563.89,573
2564.73,738
2565.57,534
2566.4,654
2567.24,544
2568.07,594
2568.91,546
2569.75,752
2570.58,632
2571.42,683
2572.25,626
2573.09,715
2573.92,565
2574.75,736
2575.59,594
2576.42,621
2577.26,645
2578.09,652
2578.92,716
2579.76,642
2580.59,631
2581.42,712
2582.25,656
2583.09,724
2583.92,569
2584.75,764
2585.58,594
2586.41,800
2587.24,695
2588.07,621
2588.91,672
2589.74,784
2590.57,611
2591.4,746
2592.23,573
2593.06,666
2593.89,674
2594.72,715
2595.54,666
2596.37,842
2597.2,548
2598.03,759
2598.86,676
2599.69,717
2600.52,646
2601.34,774
2602.17,680
2603,843
2603.82,630
2604.65,714
2605.48,669
2606.3,690
2607.13,672
2607.96,795
2608.78,724
2609.61,805
2610.43,629
2611.26,777
2612.08,703
2612.91,790
2613.73,663
2614.56,820
2615.38,722
2616.21,750
2617.03,711
2617.86,804
2618.68,670
2619.5,780
2620.33,763
2621.15,761
2621.97,675
2622.79,739
2623.62,589
2624.44,790
2625.26,703
2626.08,731
2626.9,661
2627.72,774
2628.55,643
2629.37,833
2630.19,723
2631.01,788
2631.83,629
2632.65,693
2633.47,690
2634.29,730
2635.11,746
2635.93,766
2636.75,701
2637.57,808
2638.39,647
2639.2,868
2640.02,791
2640.84,763
2641.66,763
2642.48,842
2643.29,768
2644.11,778
2644.93,734
2645.75,764
2646.56,728
2647.38,786
2648.2,682
2649.01,0
2649.83,0
2650.65,0
2651.46,0
2652.28,0