ENLIGHTEN Version,1.7.2
Measurement ID,20190904-111613-685064-WP-00438
Serial Number,WP-00438
Label,11:16:13 WP-00438
Integration Time,1000
Timestamp,16:13.7
Note,
Temperature,0
CCD C0,807.1400146
CCD C1,0.117610998
CCD C2,-1.64E-05
CCD C3,2.33E-09
CCD Offset,0
CCD Gain,8
Laser Wavelength,785
Laser Enable,TRUE
Laser Power,100
Laser Temperature,0
Pixel Count,1952
,
Wavenumber,Processed
349.43,0
351.23,0
353.04,0
354.84,9649
356.64,8777
358.44,9758
360.24,8958
362.04,10120
363.84,9143
365.64,9984
367.43,9037
369.23,10214
371.02,8663
372.81,9694
374.6,8713
376.39,9428
378.18,8475
379.97,9316
381.76,8375
383.55,9094
385.33,8280
387.11,9199
388.9,8312
390.68,8858
392.46,8038
394.24,8920
396.02,8209
397.8,8849
399.58,8165
401.35,8941
403.13,8095
404.9,9145
406.68,8615
408.45,9488
410.22,8850
411.99,9901
413.76,9131
415.53,10205
417.3,9745
419.06,10468
420.83,9722
422.59,10454
424.35,9754
426.12,10069
427.88,9598
429.64,10093
431.4,9283
433.16,9867
434.91,8893
436.67,9540
438.43,8547
440.18,9058
441.93,8263
443.69,8890
445.44,8059
447.19,8545
448.94,7706
450.69,8146
452.43,7461
454.18,8301
455.92,7290
457.67,8056
459.41,7338
461.16,7738
462.9,6981
464.64,7536
466.38,7133
468.12,7613
469.85,6928
471.59,7362
473.33,6855
475.06,7864
476.8,7122
478.53,7715
480.26,7242
481.99,7917
483.72,7284
485.45,8060
487.18,7783
488.91,8269
490.63,7535
492.36,8795
494.08,8170
495.8,8368
497.53,7862
499.25,8657
500.97,7917
502.69,8717
504.41,7967
506.12,8786
507.84,7965
509.56,8623
511.27,7973
512.98,8463
514.7,7892
516.41,8312
518.12,7652
519.83,8299
521.54,7237
523.25,8271
524.95,7461
526.66,7911
528.36,7408
530.07,7674
531.77,7293
533.47,7688
535.18,6980
536.88,7628
538.58,6831
540.27,7577
541.97,6825
543.67,7480
545.36,6819
547.06,7336
548.75,6811
550.45,7653
552.14,6773
553.83,7382
555.52,6835
557.21,7411
558.9,6977
560.58,7509
562.27,6905
563.96,7655
565.64,6851
567.32,7930
569.01,7217
570.69,8091
572.37,7509
574.05,8318
575.73,7379
577.41,8276
579.08,7681
580.76,8225
582.44,7844
584.11,8435
585.78,7642
587.46,8535
589.13,7716
590.8,8570
592.47,7853
594.14,8377
595.81,7719
597.47,8009
599.14,7665
600.8,8081
602.47,7447
604.13,8021
605.79,7467
607.46,8136
609.12,7506
610.78,8300
612.44,7817
614.09,8947
615.75,8313
617.41,9508
619.06,9013
620.72,9889
622.37,9791
624.02,10654
625.67,10083
627.33,11188
628.97,10793
630.62,11825
632.27,10906
633.92,12077
635.57,11119
637.21,11393
638.86,10681
640.5,10860
642.14,10031
643.78,10092
645.42,9344
647.06,9716
648.7,8946
650.34,9429
651.98,8682
653.62,9182
655.25,8559
656.89,9029
658.52,8405
660.15,8858
661.79,8220
663.42,8908
665.05,8372
666.68,8679
668.31,8033
669.93,8727
671.56,7766
673.19,8264
674.81,7609
676.43,8070
678.06,7474
679.68,7747
681.3,7304
682.92,7608
684.54,6881
686.16,7561
687.78,7023
689.4,7344
691.01,7178
692.63,7355
694.24,6834
695.86,7329
697.47,6907
699.08,7203
700.69,6955
702.3,7353
703.91,6810
705.52,7184
707.13,6879
708.74,7282
710.34,6712
711.95,7146
713.55,6854
715.15,7119
716.76,6552
718.36,7307
719.96,6543
721.56,7234
723.16,6762
724.76,7249
726.35,7115
727.95,7562
729.55,7291
731.14,7995
732.73,7779
734.33,8624
735.92,7950
737.51,9290
739.1,8591
740.69,9814
742.28,9439
743.87,10639
745.46,10148
747.04,10599
748.63,10169
750.21,10854
751.8,10211
753.38,10921
754.96,9835
756.54,10329
758.12,9773
759.7,10238
761.28,9503
762.86,9908
764.44,9400
766.01,10215
767.59,9817
769.16,10664
770.74,10223
772.31,11144
773.88,10923
775.45,12098
777.02,11592
778.59,12819
780.16,12345
781.73,13368
783.3,12446
784.86,13444
786.43,12646
787.99,13197
789.56,12445
791.12,12709
792.68,11932
794.24,12578
795.8,11502
797.36,12386
798.92,11524
800.48,12323
802.04,11905
803.59,12559
805.15,12254
806.7,13337
808.26,13020
809.81,14106
811.36,14129
812.91,15486
814.46,15149
816.01,16881
817.56,16446
819.11,18203
820.66,17791
822.2,19097
823.75,18469
825.3,20101
826.84,19355
828.38,20605
829.93,19781
831.47,21006
833.01,19776
834.55,20581
836.09,19247
837.63,20327
839.16,18757
840.7,19391
842.24,17769
843.77,18144
845.31,16317
846.84,16518
848.37,14995
849.9,15505
851.44,13907
852.97,14238
854.5,12919
856.03,13095
857.55,11748
859.08,12150
860.61,11299
862.13,11970
863.66,10623
865.18,11617
866.7,10432
868.23,11120
869.75,10424
871.27,11354
872.79,10332
874.31,11539
875.83,10495
877.35,11152
878.86,10665
880.38,11408
881.89,10782
883.41,11307
884.92,10892
886.44,11466
887.95,10122
889.46,11167
890.97,10075
892.48,10959
893.99,9862
895.5,10432
897.01,9591
898.51,10170
900.02,9298
901.52,9747
903.03,8722
904.53,9498
906.04,8942
907.54,9042
909.04,8350
910.54,9103
912.04,8158
913.54,8908
915.04,8574
916.53,9044
918.03,8136
919.53,8851
921.02,8598
922.52,9008
924.01,8479
925.5,9033
927,8605
928.49,9313
929.98,9057
931.47,9496
932.96,9087
934.44,9914
935.93,9692
937.42,10327
938.9,10016
940.39,10681
941.87,10573
943.36,11235
944.84,10892
946.32,11544
947.8,11041
949.29,11620
950.77,11088
952.24,11588
953.72,10633
955.2,11131
956.68,10480
958.15,10589
959.63,9878
961.1,9804
962.58,9315
964.05,9222
965.52,8409
967,8768
968.47,7851
969.94,8339
971.41,7695
972.87,8147
974.34,7487
975.81,7741
977.28,7574
978.74,8068
980.21,7496
981.67,8311
983.13,7710
984.6,8405
986.06,8141
987.52,8593
988.98,8587
990.44,9341
991.9,9025
993.36,9808
994.82,9481
996.27,10464
997.73,10106
999.18,10643
1000.64,10272
1002.09,10793
1003.55,10493
1005,10445
1006.45,9569
1007.9,9863
1009.35,8952
1010.8,9258
1012.25,8157
1013.7,8492
1015.14,8056
1016.59,7668
1018.04,7370
1019.48,7963
1020.93,6799
1022.37,7138
1023.81,6556
1025.25,7010
1026.7,6530
1028.14,6983
1029.58,6272
1031.02,6836
1032.45,6310
1033.89,6625
1035.33,6196
1036.77,6792
1038.2,6500
1039.64,7042
1041.07,6631
1042.5,7347
1043.94,7056
1045.37,7214
1046.8,7168
1048.23,8098
1049.66,7646
1051.09,8309
1052.52,8192
1053.95,9132
1055.37,9067
1056.8,9692
1058.23,9556
1059.65,10293
1061.08,10002
1062.5,10739
1063.92,9950
1065.34,10652
1066.76,10285
1068.19,10543
1069.61,9780
1071.02,10240
1072.44,9480
1073.86,9728
1075.28,8894
1076.69,9447
1078.11,8514
1079.53,9045
1080.94,8469
1082.35,9001
1083.77,8583
1085.18,8974
1086.59,8367
1088,9039
1089.41,8687
1090.82,9137
1092.23,8844
1093.64,9291
1095.04,9063
1096.45,9668
1097.86,9298
1099.26,9886
1100.67,9519
1102.07,10090
1103.47,9771
1104.88,10409
1106.28,10198
1107.68,10997
1109.08,10867
1110.48,11508
1111.88,11270
1113.28,12193
1114.67,11647
1116.07,12391
1117.47,12093
1118.86,13270
1120.26,12303
1121.65,13228
1123.05,12641
1124.44,13571
1125.83,12660
1127.22,13485
1128.61,12574
1130,13198
1131.39,12142
1132.78,12314
1134.17,11324
1135.56,11339
1136.94,10647
1138.33,10466
1139.72,9700
1141.1,10184
1142.48,9126
1143.87,9390
1145.25,8492
1146.63,9204
1148.01,8635
1149.39,9236
1150.77,8591
1152.15,8970
1153.53,9024
1154.91,9282
1156.29,9331
1157.66,10316
1159.04,10312
1160.41,11395
1161.79,11399
1163.16,12976
1164.54,12963
1165.91,13999
1167.28,13977
1168.65,15338
1170.02,15351
1171.39,16567
1172.76,16843
1174.13,17746
1175.5,18051
1176.86,19670
1178.23,20001
1179.6,21471
1180.96,22371
1182.33,23935
1183.69,23959
1185.05,25083
1186.42,24583
1187.78,25207
1189.14,24506
1190.5,24695
1191.86,23430
1193.22,22927
1194.58,21589
1195.94,21104
1197.29,19923
1198.65,20215
1200.01,18784
1201.36,18669
1202.72,18112
1204.07,18004
1205.42,16675
1206.78,17191
1208.13,16281
1209.48,16296
1210.83,14870
1212.18,14929
1213.53,13786
1214.88,13846
1216.23,12693
1217.58,12882
1218.92,11440
1220.27,11744
1221.61,11074
1222.96,11039
1224.3,10143
1225.65,10408
1226.99,9623
1228.33,9965
1229.67,9138
1231.01,9019
1232.36,8376
1233.7,8956
1235.03,8150
1236.37,8316
1237.71,7875
1239.05,8260
1240.38,7787
1241.72,7999
1243.06,7630
1244.39,8237
1245.72,7867
1247.06,8184
1248.39,7721
1249.72,8295
1251.05,7770
1252.39,8252
1253.72,7699
1255.05,8365
1256.37,7788
1257.7,8179
1259.03,7764
1260.36,7855
1261.68,7858
1263.01,8452
1264.33,7692
1265.66,8341
1266.98,7989
1268.31,8250
1269.63,8027
1270.95,8407
1272.27,8266
1273.59,9208
1274.91,8840
1276.23,9501
1277.55,9108
1278.87,9868
1280.19,9845
1281.51,10450
1282.82,10091
1284.14,10942
1285.45,10677
1286.77,11343
1288.08,10790
1289.39,12073
1290.71,11643
1292.02,12900
1293.33,12531
1294.64,13217
1295.95,12827
1297.26,13379
1298.57,12723
1299.88,13109
1301.19,12232
1302.49,12426
1303.8,11560
1305.11,11362
1306.41,10286
1307.72,10403
1309.02,9382
1310.32,9796
1311.63,8966
1312.93,8988
1314.23,8322
1315.53,8537
1316.83,7845
1318.13,8250
1319.43,7882
1320.73,8192
1322.03,7716
1323.32,7924
1324.62,7875
1325.92,7934
1327.21,7670
1328.51,8193
1329.8,7631
1331.1,8099
1332.39,7595
1333.68,7901
1334.97,7513
1336.27,8043
1337.56,7472
1338.85,7769
1340.14,7456
1341.42,8080
1342.71,7471
1344,7998
1345.29,7495
1346.57,7783
1347.86,7373
1349.15,7539
1350.43,7037
1351.71,7402
1353,7026
1354.28,7203
1355.56,6621
1356.85,6866
1358.13,6637
1359.41,6752
1360.69,6354
1361.97,6604
1363.25,6214
1364.52,6488
1365.8,6340
1367.08,6299
1368.35,6079
1369.63,6442
1370.91,6090
1372.18,6316
1373.45,5864
1374.73,6223
1376,5830
1377.27,5946
1378.54,5690
1379.82,5936
1381.09,5445
1382.36,5857
1383.63,5516
1384.89,5852
1386.16,5311
1387.43,6054
1388.7,5757
1389.96,6036
1391.23,5669
1392.5,6222
1393.76,6023
1395.02,6464
1396.29,6331
1397.55,6694
1398.81,6357
1400.08,7185
1401.34,6905
1402.6,7493
1403.86,7225
1405.12,7782
1406.38,7817
1407.63,8206
1408.89,8120
1410.15,8839
1411.41,8883
1412.66,9717
1413.92,9717
1415.17,10380
1416.43,10384
1417.68,11280
1418.93,11473
1420.19,11900
1421.44,11927
1422.69,12493
1423.94,12427
1425.19,13152
1426.44,12963
1427.69,13395
1428.94,13240
1430.19,13758
1431.43,13614
1432.68,14642
1433.93,14282
1435.17,15185
1436.42,15425
1437.66,15964
1438.91,15928
1440.15,17041
1441.39,17183
1442.64,17646
1443.88,18095
1445.12,18598
1446.36,18210
1447.6,18691
1448.84,18904
1450.08,19074
1451.32,18419
1452.56,18472
1453.79,17945
1455.03,18372
1456.27,17768
1457.5,17674
1458.74,17271
1459.97,16952
1461.21,16657
1462.44,16666
1463.67,16018
1464.91,15765
1466.14,15157
1467.37,15180
1468.6,14451
1469.83,14160
1471.06,13515
1472.29,12999
1473.52,12406
1474.75,12309
1475.97,11464
1477.2,11329
1478.43,10490
1479.65,10302
1480.88,9450
1482.1,9535
1483.33,8830
1484.55,8989
1485.77,8222
1487,8014
1488.22,7626
1489.44,7683
1490.66,7003
1491.88,7111
1493.1,6807
1494.32,6663
1495.54,6391
1496.76,6520
1497.97,5925
1499.19,6363
1500.41,5909
1501.62,6023
1502.84,5461
1504.05,5936
1505.27,5587
1506.48,5898
1507.7,5272
1508.91,5565
1510.12,5473
1511.33,5755
1512.54,5222
1513.75,5622
1514.96,5105
1516.17,5660
1517.38,5197
1518.59,5468
1519.8,5060
1521.01,5295
1522.21,5037
1523.42,5279
1524.63,5194
1525.83,5199
1527.04,4997
1528.24,5318
1529.44,4907
1530.65,5178
1531.85,4852
1533.05,5082
1534.25,4975
1535.45,5055
1536.65,4896
1537.85,4985
1539.05,4818
1540.25,4981
1541.45,4703
1542.65,5191
1543.85,4917
1545.04,4840
1546.24,4726
1547.44,5099
1548.63,4546
1549.83,5162
1551.02,4605
1552.21,4875
1553.41,4905
1554.6,5101
1555.79,4650
1556.98,5108
1558.17,4703
1559.37,5201
1560.56,4753
1561.74,4969
1562.93,4641
1564.12,5174
1565.31,4670
1566.5,5103
1567.68,4706
1568.87,5116
1570.06,4747
1571.24,5150
1572.43,4993
1573.61,5339
1574.8,5070
1575.98,5292
1577.16,5035
1578.34,5270
1579.53,5108
1580.71,5454
1581.89,5461
1583.07,5568
1584.25,5435
1585.43,5556
1586.61,5379
1587.78,5853
1588.96,5762
1590.14,6160
1591.32,6061
1592.49,6713
1593.67,6407
1594.84,6985
1596.02,6793
1597.19,7349
1598.37,7092
1599.54,7780
1600.71,7794
1601.88,8151
1603.06,8374
1604.23,8812
1605.4,8825
1606.57,9393
1607.74,9411
1608.91,10193
1610.07,9876
1611.24,10478
1612.41,10328
1613.58,11025
1614.74,10736
1615.91,10734
1617.08,10468
1618.24,10426
1619.41,9995
1620.57,9651
1621.73,9081
1622.9,8828
1624.06,8112
1625.22,7720
1626.38,7103
1627.54,7073
1628.7,6253
1629.87,6208
1631.02,5788
1632.18,5630
1633.34,5219
1634.5,5268
1635.66,4665
1636.82,4926
1637.97,4507
1639.13,4511
1640.28,4013
1641.44,4381
1642.59,4022
1643.75,4076
1644.9,3789
1646.06,3954
1647.21,3530
1648.36,3763
1649.51,3553
1650.66,3663
1651.81,3344
1652.97,3591
1654.11,3321
1655.26,3614
1656.41,3242
1657.56,3572
1658.71,3189
1659.86,3464
1661,3402
1662.15,3477
1663.3,3275
1664.44,3360
1665.59,3304
1666.73,3480
1667.88,3166
1669.02,3407
1670.16,3151
1671.3,3460
1672.45,3146
1673.59,3422
1674.73,3139
1675.87,3447
1677.01,3240
1678.15,3554
1679.29,3247
1680.43,3547
1681.57,3333
1682.7,3595
1683.84,3202
1684.98,3536
1686.12,3201
1687.25,3640
1688.39,3305
1689.52,3530
1690.66,3298
1691.79,3444
1692.92,3409
1694.06,3436
1695.19,3253
1696.32,3570
1697.45,3162
1698.58,3499
1699.72,3175
1700.85,3380
1701.98,3150
1703.1,3376
1704.23,3296
1705.36,3577
1706.49,3294
1707.62,3416
1708.74,3173
1709.87,3612
1711,3163
1712.12,3483
1713.25,3251
1714.37,3367
1715.5,3165
1716.62,3579
1717.74,3001
1718.87,3396
1719.99,3282
1721.11,3506
1722.23,3247
1723.35,3533
1724.47,3117
1725.59,3572
1726.71,3248
1727.83,3357
1728.95,3163
1730.07,3431
1731.19,3051
1732.3,3371
1733.42,3144
1734.54,3356
1735.65,3114
1736.77,3135
1737.88,3197
1739,3297
1740.11,3082
1741.23,3340
1742.34,2990
1743.45,3501
1744.56,3083
1745.68,3252
1746.79,2970
1747.9,3500
1749.01,2992
1750.12,3349
1751.23,3044
1752.34,3196
1753.45,2841
1754.55,3124
1755.66,3061
1756.77,3208
1757.88,3055
1758.98,3116
1760.09,2964
1761.19,3389
1762.3,2906
1763.4,3234
1764.51,2854
1765.61,3215
1766.71,2922
1767.82,3049
1768.92,2773
1770.02,3014
1771.12,2882
1772.22,2926
1773.32,2891
1774.42,3060
1775.52,2752
1776.62,3084
1777.72,2932
1778.82,3040
1779.92,2587
1781.01,3035
1782.11,2766
1783.21,3043
1784.3,2768
1785.4,2936
1786.5,2572
1787.59,2980
1788.68,2737
1789.78,3012
1790.87,2773
1791.96,2858
1793.06,2740
1794.15,2887
1795.24,2492
1796.33,2691
1797.42,2552
1798.51,2732
1799.6,2586
1800.69,2867
1801.78,2496
1802.87,2633
1803.96,2490
1805.05,2734
1806.13,2543
1807.22,2791
1808.31,2287
1809.39,2732
1810.48,2381
1811.56,2703
1812.65,2337
1813.73,2715
1814.82,2298
1815.9,2623
1816.98,2407
1818.07,2544
1819.15,2319
1820.23,2596
1821.31,2189
1822.39,2462
1823.47,2330
1824.55,2718
1825.63,2247
1826.71,2307
1827.79,2240
1828.87,2416
1829.95,2226
1831.02,2410
1832.1,2203
1833.18,2458
1834.25,2063
1835.33,2357
1836.4,2116
1837.48,2271
1838.55,2051
1839.63,2206
1840.7,1905
1841.77,2243
1842.85,1988
1843.92,2172
1844.99,2029
1846.06,2196
1847.13,2010
1848.2,2146
1849.28,1919
1850.34,2168
1851.41,1936
1852.48,2212
1853.55,1974
1854.62,2051
1855.69,1873
1856.76,1985
1857.82,1801
1858.89,2056
1859.95,1809
1861.02,2127
1862.09,1737
1863.15,2038
1864.21,1873
1865.28,2094
1866.34,1682
1867.41,1943
1868.47,1769
1869.53,1906
1870.59,1847
1871.65,1860
1872.71,1822
1873.78,1906
1874.84,1757
1875.9,1959
1876.96,1670
1878.01,1778
1879.07,1719
1880.13,1882
1881.19,1801
1882.25,1817
1883.3,1682
1884.36,1935
1885.42,1730
1886.47,1890
1887.53,1589
1888.58,1845
1889.64,1609
1890.69,1883
1891.74,1672
1892.8,1796
1893.85,1648
1894.9,1690
1895.96,1576
1897.01,1852
1898.06,1746
1899.11,1864
1900.16,1741
1901.21,1870
1902.26,1723
1903.31,1852
1904.36,1650
1905.41,1824
1906.45,1601
1907.5,1783
1908.55,1577
1909.6,1844
1910.64,1654
1911.69,1686
1912.73,1585
1913.78,1679
1914.82,1639
1915.87,1705
1916.91,1593
1917.96,1765
1919,1506
1920.04,1773
1921.08,1653
1922.13,1729
1923.17,1604
1924.21,1754
1925.25,1513
1926.29,1698
1927.33,1603
1928.37,1690
1929.41,1556
1930.45,1771
1931.49,1527
1932.53,1759
1933.56,1538
1934.6,1767
1935.64,1609
1936.67,1716
1937.71,1642
1938.75,1725
1939.78,1548
1940.82,1777
1941.85,1510
1942.89,1691
1943.92,1688
1944.95,1643
1945.99,1496
1947.02,1805
1948.05,1638
1949.08,1745
1950.11,1584
1951.15,1781
1952.18,1432
1953.21,1773
1954.24,1589
1955.27,1725
1956.3,1645
1957.32,1841
1958.35,1672
1959.38,1794
1960.41,1643
1961.44,1689
1962.46,1604
1963.49,1776
1964.51,1679
1965.54,1717
1966.57,1470
1967.59,1816
1968.62,1607
1969.64,1759
1970.66,1504
1971.69,1737
1972.71,1673
1973.73,1708
1974.75,1569
1975.78,1946
1976.8,1627
1977.82,1761
1978.84,1474
1979.86,1606
1980.88,1626
1981.9,1769
1982.92,1541
1983.94,1909
1984.96,1550
1985.98,1830
1986.99,1450
1988.01,1795
1989.03,1551
1990.04,1803
1991.06,1559
1992.08,1777
1993.09,1670
1994.11,1572
1995.12,1545
1996.14,1774
1997.15,1651
1998.16,1760
1999.18,1742
2000.19,1703
2001.2,1591
2002.21,1802
2003.23,1560
2004.24,1703
2005.25,1495
2006.26,1754
2007.27,1511
2008.28,1862
2009.29,1575
2010.3,1800
2011.31,1494
2012.32,1773
2013.32,1579
2014.33,1636
2015.34,1626
2016.35,1784
2017.35,1517
2018.36,1800
2019.36,1466
2020.37,1749
2021.38,1653
2022.38,1745
2023.38,1544
2024.39,1890
2025.39,1653
2026.4,1832
2027.4,1570
2028.4,1735
2029.4,1634
2030.41,1814
2031.41,1557
2032.41,1779
2033.41,1665
2034.41,1808
2035.41,1476
2036.41,1806
2037.41,1500
2038.41,1793
2039.41,1507
2040.4,1693
2041.4,1602
2042.4,1786
2043.4,1576
2044.39,1680
2045.39,1520
2046.39,1869
2047.38,1598
2048.38,1645
2049.37,1566
2050.37,1765
2051.36,1631
2052.36,1717
2053.35,1580
2054.34,1784
2055.34,1392
2056.33,1562
2057.32,1451
2058.31,1664
2059.3,1432
2060.3,1685
2061.29,1528
2062.28,1592
2063.27,1433
2064.26,1564
2065.25,1441
2066.23,1493
2067.22,1447
2068.21,1485
2069.2,1291
2070.19,1421
2071.17,1589
2072.16,1590
2073.15,1427
2074.13,1552
2075.12,1396
2076.11,1627
2077.09,1343
2078.08,1451
2079.06,1270
2080.04,1515
2081.03,1387
2082.01,1475
2083,1364
2083.98,1493
2084.96,1320
2085.94,1317
2086.92,1364
2087.91,1357
2088.89,1235
2089.87,1319
2090.85,1285
2091.83,1425
2092.81,1266
2093.79,1425
2094.77,1202
2095.74,1441
2096.72,1194
2097.7,1365
2098.68,1185
2099.66,1487
2100.63,1174
2101.61,1193
2102.59,1146
2103.56,1272
2104.54,1101
2105.51,1389
2106.49,1079
2107.46,1267
2108.44,1159
2109.41,1284
2110.38,1058
2111.36,1396
2112.33,1170
2113.3,1251
2114.27,1079
2115.25,1220
2116.22,1060
2117.19,1285
2118.16,1078
2119.13,1320
2120.1,1121
2121.07,1192
2122.04,966
2123.01,1202
2123.98,994
2124.95,1236
2125.91,1078
2126.88,1127
2127.85,963
2128.82,1161
2129.78,1079
2130.75,1153
2131.72,1114
2132.68,1002
2133.65,1031
2134.61,1207
2135.58,911
2136.54,1163
2137.51,947
2138.47,1148
2139.43,911
2140.4,1192
2141.36,950
2142.32,1065
2143.29,953
2144.25,1049
2145.21,974
2146.17,1169
2147.13,972
2148.09,1139
2149.05,862
2150.01,1068
2150.97,874
2151.93,1066
2152.89,924
2153.85,1129
2154.81,983
2155.76,1058
2156.72,870
2157.68,1090
2158.64,1041
2159.59,1088
2160.55,845
2161.51,1061
2162.46,938
2163.42,1102
2164.37,1046
2165.33,1092
2166.28,999
2167.24,1160
2168.19,1010
2169.14,1078
2170.1,881
2171.05,1045
2172,971
2172.95,1151
2173.91,906
2174.86,1160
2175.81,928
2176.76,1078
2177.71,930
2178.66,1087
2179.61,958
2180.56,1081
2181.51,993
2182.46,1020
2183.41,973
2184.36,1163
2185.3,1023
2186.25,1213
2187.2,1130
2188.15,1326
2189.09,963
2190.04,1160
2190.99,852
2191.93,1118
2192.88,1035
2193.82,1147
2194.77,955
2195.71,1140
2196.66,1026
2197.6,1156
2198.54,963
2199.49,1245
2200.43,1022
2201.37,1157
2202.32,1033
2203.26,1143
2204.2,939
2205.14,1099
2206.08,988
2207.02,1237
2207.96,1007
2208.9,1196
2209.84,1011
2210.78,1113
2211.72,987
2212.66,1202
2213.6,1060
2214.54,1217
2215.48,1068
2216.42,1149
2217.35,978
2218.29,1220
2219.23,1102
2220.16,1360
2221.1,1020
2222.04,1213
2222.97,1082
2223.91,1275
2224.84,1105
2225.78,1247
2226.71,1156
2227.65,1271
2228.58,1148
2229.51,1354
2230.45,1212
2231.38,1276
2232.31,1029
2233.24,1181
2234.18,1031
2235.11,1285
2236.04,993
2236.97,1253
2237.9,1077
2238.83,1230
2239.76,1066
2240.69,1280
2241.62,1055
2242.55,1253
2243.48,1161
2244.41,1441
2245.34,1127
2246.27,1133
2247.19,1054
2248.12,1317
2249.05,1005
2249.98,1305
2250.9,1098
2251.83,1256
2252.75,1074
2253.68,1352
2254.61,1147
2255.53,1263
2256.46,1149
2257.38,1290
2258.31,1099
2259.23,1278
2260.15,1205
2261.08,1226
2262,1163
2262.92,1304
2263.85,1144
2264.77,1303
2265.69,1035
2266.61,1298
2267.53,1148
2268.45,1301
2269.37,1129
2270.3,1305
2271.22,1059
2272.14,1341
2273.05,1081
2273.97,1277
2274.89,1087
2275.81,1297
2276.73,1120
2277.65,1259
2278.57,998
2279.48,1276
2280.4,1027
2281.32,1230
2282.24,1111
2283.15,1218
2284.07,1095
2284.98,1288
2285.9,1052
2286.82,1250
2287.73,1040
2288.65,1198
2289.56,1037
2290.47,1138
2291.39,1181
2292.3,1216
2293.21,1001
2294.13,1256
2295.04,1065
2295.95,1231
2296.87,972
2297.78,1121
2298.69,1003
2299.6,1094
2300.51,983
2301.42,1246
2302.33,1014
2303.24,1165
2304.15,963
2305.06,1214
2305.97,1013
2306.88,1198
2307.79,1003
2308.7,1188
2309.61,988
2310.51,1068
2311.42,913
2312.33,1093
2313.24,932
2314.14,1173
2315.05,974
2315.96,1069
2316.86,986
2317.77,1173
2318.67,1003
2319.58,1200
2320.48,823
2321.39,1037
2322.29,934
2323.2,1074
2324.1,979
2325,987
2325.91,957
2326.81,1045
2327.71,874
2328.62,1114
2329.52,878
2330.42,994
2331.32,863
2332.22,897
2333.12,821
2334.03,925
2334.93,834
2335.83,1017
2336.73,822
2337.63,1086
2338.53,802
2339.42,943
2340.32,789
2341.22,1029
2342.12,734
2343.02,964
2343.92,802
2344.81,967
2345.71,818
2346.61,910
2347.51,776
2348.4,885
2349.3,758
2350.19,825
2351.09,792
2351.98,969
2352.88,688
2353.77,941
2354.67,753
2355.56,879
2356.46,644
2357.35,852
2358.25,740
2359.14,937
2360.03,701
2360.92,930
2361.82,686
2362.71,840
2363.6,752
2364.49,934
2365.38,673
2366.28,922
2367.17,804
2368.06,791
2368.95,685
2369.84,895
2370.73,773
2371.62,836
2372.51,873
2373.4,903
2374.28,794
2375.17,803
2376.06,690
2376.95,812
2377.84,731
2378.72,856
2379.61,727
2380.5,888
2381.39,684
2382.27,932
2383.16,735
2384.04,919
2384.93,700
2385.81,817
2386.7,688
2387.59,902
2388.47,750
2389.35,809
2390.24,698
2391.12,985
2392.01,732
2392.89,983
2393.77,662
2394.66,863
2395.54,654
2396.42,886
2397.3,765
2398.18,782
2399.07,679
2399.95,852
2400.83,732
2401.71,895
2402.59,730
2403.47,879
2404.35,634
2405.23,907
2406.11,692
2406.99,972
2407.87,689
2408.75,884
2409.62,743
2410.5,943
2411.38,829
2412.26,914
2413.14,777
2414.01,958
2414.89,805
2415.77,940
2416.64,716
2417.52,1009
2418.4,746
2419.27,878
2420.15,835
2421.02,973
2421.9,708
2422.77,937
2423.65,703
2424.52,1000
2425.4,779
2426.27,993
2427.14,753
2428.02,952
2428.89,698
2429.76,910
2430.64,811
2431.51,1028
2432.38,837
2433.25,1009
2434.12,786
2434.99,907
2435.87,726
2436.74,1046
2437.61,795
2438.48,974
2439.35,722
2440.22,1028
2441.09,743
2441.96,1004
2442.83,810
2443.69,986
2444.56,822
2445.43,949
2446.3,787
2447.17,1061
2448.04,753
2448.9,954
2449.77,738
2450.64,957
2451.5,822
2452.37,996
2453.24,707
2454.1,1002
2454.97,748
2455.83,997
2456.7,741
2457.56,886
2458.43,744
2459.29,986
2460.16,786
2461.02,937
2461.89,739
2462.75,933
2463.61,727
2464.48,900
2465.34,780
2466.2,940
2467.06,815
2467.93,941
2468.79,728
2469.65,974
2470.51,769
2471.37,958
2472.23,660
2473.1,985
2473.96,873
2474.82,1032
2475.68,721
2476.54,989
2477.4,628
2478.26,949
2479.11,828
2479.97,1086
2480.83,746
2481.69,1028
2482.55,723
2483.41,988
2484.26,825
2485.12,1011
2485.98,728
2486.84,949
2487.69,749
2488.55,964
2489.41,775
2490.26,998
2491.12,896
2491.97,1015
2492.83,759
2493.68,970
2494.54,855
2495.39,801
2496.25,778
2497.1,927
2497.96,754
2498.81,931
2499.67,858
2500.52,1005
2501.37,711
2502.22,963
2503.08,811
2503.93,1016
2504.78,772
2505.63,949
2506.49,647
2507.34,979
2508.19,657
2509.04,945
2509.89,691
2510.74,985
2511.59,824
2512.44,1009
2513.29,679
2514.14,940
2514.99,726
2515.84,878
2516.69,736
2517.54,890
2518.39,681
2519.24,902
2520.08,664
2520.93,891
2521.78,707
2522.63,1020
2523.48,849
2524.32,949
2525.17,728
2526.02,943
2526.86,729
2527.71,905
2528.56,768
2529.4,1020
2530.25,766
2531.09,965
2531.94,732
2532.78,923
2533.63,643
2534.47,872
2535.32,758
2536.16,1002
2537,752
2537.85,942
2538.69,670
2539.53,918
2540.38,768
2541.22,841
2542.06,739
2542.9,882
2543.75,710
2544.59,909
2545.43,713
2546.27,894
2547.11,783
2547.95,885
2548.79,767
2549.64,981
2550.48,675
2551.32,907
2552.16,638
2553,847
2553.84,557
2554.67,895
2555.51,660
2556.35,935
2557.19,712
2558.03,932
2558.87,776
2559.71,1003
2560.54,700
2561.38,1002
2562.22,628
2563.06,941
2563.89,665
2564.73,850
2565.57,680
2566.4,954
2567.24,661
2568.07,927
2568.91,649
2569.75,794
2570.58,680
2571.42,868
2572.25,710
2573.09,927
2573.92,648
2574.75,853
2575.59,629
2576.42,915
2577.26,710
2578.09,953
2578.92,613
2579.76,926
2580.59,672
2581.42,762
2582.25,681
2583.09,933
2583.92,723
2584.75,899
2585.58,573
2586.41,923
2587.24,658
2588.07,868
2588.91,661
2589.74,765
2590.57,682
2591.4,823
2592.23,620
2593.06,915
2593.89,631
2594.72,898
2595.54,674
2596.37,935
2597.2,667
2598.03,878
2598.86,726
2599.69,830
2600.52,655
2601.34,1006
2602.17,655
2603,846
2603.82,689
2604.65,867
2605.48,709
2606.3,821
2607.13,610
2607.96,812
2608.78,738
2609.61,897
2610.43,780
2611.26,949
2612.08,662
2612.91,891
2613.73,682
2614.56,976
2615.38,575
2616.21,958
2617.03,613
2617.86,976
2618.68,541
2619.5,888
2620.33,649
2621.15,839
2621.97,690
2622.79,888
2623.62,645
2624.44,876
2625.26,722
2626.08,844
2626.9,727
2627.72,963
2628.55,679
2629.37,853
2630.19,635
2631.01,921
2631.83,608
2632.65,840
2633.47,654
2634.29,922
2635.11,613
2635.93,961
2636.75,664
2637.57,890
2638.39,762
2639.2,873
2640.02,767
2640.84,904
2641.66,693
2642.48,846
2643.29,838
2644.11,934
2644.93,672
2645.75,843
2646.56,657
2647.38,895
2648.2,659
2649.01,0
2649.83,0
2650.65,0
2651.46,0
2652.28,0