ENLIGHTEN Version,1.7.2
Measurement ID,20190905-083327-112317-WP-00340
Serial Number,WP-00340
Label,08:33:27 WP-00340
Integration Time,100
Timestamp,2019-09-05 08:33:27.112317
Note,
Temperature,10.010854111966182
CCD C0,801.7174072265625
CCD C1,0.14122000336647034
CCD C2,-5.609700110653648e-06
CCD C3,-8.541699791919655e-09
CCD Offset,0
CCD Gain,1.9
Laser Wavelength,785
Laser Enable,True
Laser Power,100
Laser Temperature,0
Pixel Count,1024

Pixel,Wavelength,Wavenumber,Processed
0,801.72,265.63,377.00
1,801.86,267.83,460.00
2,802.00,270.02,605.00
3,802.14,272.22,805.00
4,802.28,274.41,1014.00
5,802.42,276.60,1313.00
6,802.56,278.80,1686.00
7,802.71,280.99,2140.00
8,802.85,283.18,2730.00
9,802.99,285.37,3375.00
10,803.13,287.55,4065.00
11,803.27,289.74,4794.00
12,803.41,291.93,5542.00
13,803.55,294.11,6232.00
14,803.69,296.30,6829.00
15,803.83,298.48,7377.00
16,803.98,300.66,7794.00
17,804.12,302.84,8154.00
18,804.26,305.02,8298.00
19,804.40,307.20,8452.00
20,804.54,309.38,8486.00
21,804.68,311.56,8559.00
22,804.82,313.74,8628.00
23,804.96,315.91,8673.00
24,805.10,318.09,8591.00
25,805.24,320.26,8793.00
26,805.39,322.43,8752.00
27,805.53,324.61,8806.00
28,805.67,326.78,8882.00
29,805.81,328.95,8914.00
30,805.95,331.12,8946.00
31,806.09,333.28,9019.00
32,806.23,335.45,9184.00
33,806.37,337.62,9079.00
34,806.51,339.78,9214.00
35,806.65,341.95,9262.00
36,806.79,344.11,9298.00
37,806.93,346.27,9257.00
38,807.08,348.43,9333.00
39,807.22,350.59,9457.00
40,807.36,352.75,9473.00
41,807.50,354.91,9473.00
42,807.64,357.07,9488.00
43,807.78,359.23,9502.00
44,807.92,361.38,9487.00
45,808.06,363.54,9392.00
46,808.20,365.69,9434.00
47,808.34,367.84,9535.00
48,808.48,370.00,9542.00
49,808.62,372.15,9468.00
50,808.76,374.30,9497.00
51,808.90,376.45,9508.00
52,809.04,378.59,9674.00
53,809.19,380.74,9590.00
54,809.33,382.89,9669.00
55,809.47,385.03,9808.00
56,809.61,387.18,9671.00
57,809.75,389.32,9772.00
58,809.89,391.46,9945.00
59,810.03,393.60,9860.00
60,810.17,395.74,10046.00
61,810.31,397.88,10059.00
62,810.45,400.02,10119.00
63,810.59,402.16,10215.00
64,810.73,404.29,10166.00
65,810.87,406.43,10432.00
66,811.01,408.57,10416.00
67,811.15,410.70,10606.00
68,811.29,412.83,10859.00
69,811.43,414.96,10948.00
70,811.57,417.09,11152.00
71,811.71,419.22,11287.00
72,811.85,421.35,11603.00
73,811.99,423.48,11783.00
74,812.13,425.61,11943.00
75,812.27,427.73,12286.00
76,812.41,429.86,12565.00
77,812.55,431.98,12888.00
78,812.69,434.11,13066.00
79,812.83,436.23,13419.00
80,812.97,438.35,13704.00
81,813.11,440.47,13934.00
82,813.26,442.59,14080.00
83,813.40,444.71,14184.00
84,813.54,446.82,14338.00
85,813.68,448.94,14243.00
86,813.82,451.05,14068.00
87,813.96,453.17,13771.00
88,814.10,455.28,13478.00
89,814.24,457.39,12984.00
90,814.38,459.51,12526.00
91,814.52,461.62,12104.00
92,814.66,463.73,11716.00
93,814.80,465.83,11366.00
94,814.94,467.94,11065.00
95,815.08,470.05,10819.00
96,815.22,472.15,10639.00
97,815.36,474.26,10427.00
98,815.50,476.36,10303.00
99,815.63,478.47,10165.00
100,815.77,480.57,10044.00
101,815.91,482.67,9963.00
102,816.05,484.77,9886.00
103,816.19,486.87,9866.00
104,816.33,488.97,9709.00
105,816.47,491.06,9687.00
106,816.61,493.16,9696.00
107,816.75,495.25,9704.00
108,816.89,497.35,9738.00
109,817.03,499.44,9669.00
110,817.17,501.53,9608.00
111,817.31,503.62,9721.00
112,817.45,505.71,9671.00
113,817.59,507.80,9668.00
114,817.73,509.89,9627.00
115,817.87,511.98,9593.00
116,818.01,514.07,9681.00
117,818.15,516.15,9656.00
118,818.29,518.24,9613.00
119,818.43,520.32,9620.00
120,818.57,522.40,9726.00
121,818.71,524.48,9662.00
122,818.85,526.56,9654.00
123,818.99,528.64,9631.00
124,819.13,530.72,9723.00
125,819.27,532.80,9729.00
126,819.40,534.88,9729.00
127,819.54,536.95,9743.00
128,819.68,539.03,9776.00
129,819.82,541.10,9766.00
130,819.96,543.17,9849.00
131,820.10,545.24,9926.00
132,820.24,547.32,9842.00
133,820.38,549.39,10028.00
134,820.52,551.45,9945.00
135,820.66,553.52,10086.00
136,820.80,555.59,10107.00
137,820.94,557.66,10241.00
138,821.08,559.72,10147.00
139,821.22,561.78,10352.00
140,821.35,563.85,10339.00
141,821.49,565.91,10480.00
142,821.63,567.97,10410.00
143,821.77,570.03,10761.00
144,821.91,572.09,10805.00
145,822.05,574.15,10860.00
146,822.19,576.21,11030.00
147,822.33,578.26,11146.00
148,822.47,580.32,11374.00
149,822.61,582.37,11553.00
150,822.75,584.42,11768.00
151,822.88,586.48,11985.00
152,823.02,588.53,12189.00
153,823.16,590.58,12401.00
154,823.30,592.63,12698.00
155,823.44,594.68,12907.00
156,823.58,596.72,13181.00
157,823.72,598.77,13497.00
158,823.86,600.82,13659.00
159,824.00,602.86,13923.00
160,824.13,604.90,14055.00
161,824.27,606.95,14100.00
162,824.41,608.99,14296.00
163,824.55,611.03,14345.00
164,824.69,613.07,14136.00
165,824.83,615.11,13952.00
166,824.97,617.15,13680.00
167,825.10,619.18,13412.00
168,825.24,621.22,13206.00
169,825.38,623.25,12709.00
170,825.52,625.29,12435.00
171,825.66,627.32,12173.00
172,825.80,629.35,11929.00
173,825.94,631.38,11732.00
174,826.07,633.41,11581.00
175,826.21,635.44,11363.00
176,826.35,637.47,11144.00
177,826.49,639.50,10887.00
178,826.63,641.52,10737.00
179,826.77,643.55,10483.00
180,826.91,645.57,10336.00
181,827.04,647.60,10238.00
182,827.18,649.62,10202.00
183,827.32,651.64,10058.00
184,827.46,653.66,9998.00
185,827.60,655.68,10002.00
186,827.74,657.70,9940.00
187,827.87,659.71,9867.00
188,828.01,661.73,9924.00
189,828.15,663.75,9841.00
190,828.29,665.76,9793.00
191,828.43,667.77,9752.00
192,828.56,669.79,9745.00
193,828.70,671.80,9776.00
194,828.84,673.81,9697.00
195,828.98,675.82,9759.00
196,829.12,677.83,9655.00
197,829.25,679.83,9542.00
198,829.39,681.84,9537.00
199,829.53,683.84,9553.00
200,829.67,685.85,9515.00
201,829.81,687.85,9569.00
202,829.94,689.86,9584.00
203,830.08,691.86,9624.00
204,830.22,693.86,9588.00
205,830.36,695.86,9521.00
206,830.50,697.86,9512.00
207,830.63,699.85,9520.00
208,830.77,701.85,9508.00
209,830.91,703.85,9568.00
210,831.05,705.84,9523.00
211,831.18,707.84,9550.00
212,831.32,709.83,9555.00
213,831.46,711.82,9643.00
214,831.60,713.81,9569.00
215,831.74,715.80,9687.00
216,831.87,717.79,9632.00
217,832.01,719.78,9693.00
218,832.15,721.76,9579.00
219,832.29,723.75,9588.00
220,832.42,725.74,9561.00
221,832.56,727.72,9548.00
222,832.70,729.70,9508.00
223,832.84,731.68,9453.00
224,832.97,733.67,9382.00
225,833.11,735.65,9411.00
226,833.25,737.62,9335.00
227,833.39,739.60,9310.00
228,833.52,741.58,9427.00
229,833.66,743.56,9398.00
230,833.80,745.53,9434.00
231,833.93,747.51,9466.00
232,834.07,749.48,9462.00
233,834.21,751.45,9495.00
234,834.35,753.42,9446.00
235,834.48,755.39,9394.00
236,834.62,757.36,9318.00
237,834.76,759.33,9345.00
238,834.89,761.30,9219.00
239,835.03,763.26,9259.00
240,835.17,765.23,9205.00
241,835.31,767.19,9200.00
242,835.44,769.16,9162.00
243,835.58,771.12,9238.00
244,835.72,773.08,9223.00
245,835.85,775.04,9209.00
246,835.99,777.00,9238.00
247,836.13,778.96,9350.00
248,836.26,780.92,9424.00
249,836.40,782.87,9515.00
250,836.54,784.83,9504.00
251,836.68,786.78,9573.00
252,836.81,788.74,9487.00
253,836.95,790.69,9466.00
254,837.09,792.64,9422.00
255,837.22,794.59,9430.00
256,837.36,796.54,9323.00
257,837.50,798.49,9293.00
258,837.63,800.44,9310.00
259,837.77,802.38,9288.00
260,837.91,804.33,9266.00
261,838.04,806.27,9319.00
262,838.18,808.22,9344.00
263,838.31,810.16,9350.00
264,838.45,812.10,9416.00
265,838.59,814.04,9318.00
266,838.72,815.98,9487.00
267,838.86,817.92,9468.00
268,839.00,819.86,9514.00
269,839.13,821.80,9567.00
270,839.27,823.73,9597.00
271,839.41,825.67,9690.00
272,839.54,827.60,9654.00
273,839.68,829.53,9754.00
274,839.81,831.47,9694.00
275,839.95,833.40,9726.00
276,840.09,835.33,9757.00
277,840.22,837.26,9853.00
278,840.36,839.18,9908.00
279,840.50,841.11,9822.00
280,840.63,843.04,9795.00
281,840.77,844.96,9787.00
282,840.90,846.89,9770.00
283,841.04,848.81,9637.00
284,841.18,850.73,9611.00
285,841.31,852.65,9694.00
286,841.45,854.57,9629.00
287,841.58,856.49,9536.00
288,841.72,858.41,9692.00
289,841.86,860.33,9654.00
290,841.99,862.24,9588.00
291,842.13,864.16,9584.00
292,842.26,866.07,9565.00
293,842.40,867.99,9578.00
294,842.53,869.90,9603.00
295,842.67,871.81,9624.00
296,842.81,873.72,9631.00
297,842.94,875.63,9622.00
298,843.08,877.54,9662.00
299,843.21,879.44,9719.00
300,843.35,881.35,9607.00
301,843.48,883.26,9614.00
302,843.62,885.16,9647.00
303,843.75,887.06,9628.00
304,843.89,888.97,9565.00
305,844.03,890.87,9561.00
306,844.16,892.77,9579.00
307,844.30,894.67,9476.00
308,844.43,896.57,9438.00
309,844.57,898.46,9432.00
310,844.70,900.36,9321.00
311,844.84,902.26,9288.00
312,844.97,904.15,9236.00
313,845.11,906.04,9257.00
314,845.24,907.94,9219.00
315,845.38,909.83,9312.00
316,845.51,911.72,9250.00
317,845.65,913.61,9259.00
318,845.78,915.50,9200.00
319,845.92,917.38,9192.00
320,846.05,919.27,9262.00
321,846.19,921.16,9284.00
322,846.32,923.04,9258.00
323,846.46,924.92,9260.00
324,846.59,926.81,9242.00
325,846.73,928.69,9222.00
326,846.86,930.57,9210.00
327,847.00,932.45,9200.00
328,847.13,934.33,9137.00
329,847.27,936.20,9161.00
330,847.40,938.08,9234.00
331,847.54,939.96,9102.00
332,847.67,941.83,9218.00
333,847.81,943.71,9167.00
334,847.94,945.58,9222.00
335,848.08,947.45,9140.00
336,848.21,949.32,9125.00
337,848.34,951.19,9253.00
338,848.48,953.06,9135.00
339,848.61,954.93,9168.00
340,848.75,956.79,9103.00
341,848.88,958.66,9098.00
342,849.02,960.52,9047.00
343,849.15,962.39,9032.00
344,849.29,964.25,8949.00
345,849.42,966.11,9076.00
346,849.55,967.97,8941.00
347,849.69,969.83,9006.00
348,849.82,971.69,8933.00
349,849.96,973.55,8989.00
350,850.09,975.41,9025.00
351,850.23,977.26,9057.00
352,850.36,979.12,9048.00
353,850.49,980.97,8962.00
354,850.63,982.82,8895.00
355,850.76,984.68,9042.00
356,850.90,986.53,9080.00
357,851.03,988.38,9036.00
358,851.16,990.23,9112.00
359,851.30,992.07,9059.00
360,851.43,993.92,9164.00
361,851.56,995.77,9251.00
362,851.70,997.61,9336.00
363,851.83,999.46,9449.00
364,851.97,1001.30,9460.00
365,852.10,1003.14,9520.00
366,852.23,1004.98,9453.00
367,852.37,1006.82,9436.00
368,852.50,1008.66,9422.00
369,852.63,1010.50,9434.00
370,852.77,1012.34,9430.00
371,852.90,1014.17,9395.00
372,853.04,1016.01,9371.00
373,853.17,1017.84,9393.00
374,853.30,1019.68,9485.00
375,853.44,1021.51,9500.00
376,853.57,1023.34,9451.00
377,853.70,1025.17,9591.00
378,853.84,1027.00,9548.00
379,853.97,1028.83,9677.00
380,854.10,1030.65,9681.00
381,854.24,1032.48,9728.00
382,854.37,1034.31,9806.00
383,854.50,1036.13,9871.00
384,854.64,1037.95,9940.00
385,854.77,1039.77,10052.00
386,854.90,1041.60,10163.00
387,855.03,1043.42,10311.00
388,855.17,1045.24,10482.00
389,855.30,1047.05,10794.00
390,855.43,1048.87,11410.00
391,855.57,1050.69,12363.00
392,855.70,1052.50,13881.00
393,855.83,1054.32,16364.00
394,855.96,1056.13,19686.00
395,856.10,1057.94,23165.00
396,856.23,1059.75,25857.00
397,856.36,1061.56,27112.00
398,856.50,1063.37,26494.00
399,856.63,1065.18,24291.00
400,856.76,1066.99,20983.00
401,856.89,1068.80,17923.00
402,857.03,1070.60,15635.00
403,857.16,1072.41,14279.00
404,857.29,1074.21,13570.00
405,857.42,1076.01,13328.00
406,857.56,1077.81,13204.00
407,857.69,1079.61,13240.00
408,857.82,1081.41,13218.00
409,857.95,1083.21,13206.00
410,858.09,1085.01,13103.00
411,858.22,1086.81,13033.00
412,858.35,1088.60,12817.00
413,858.48,1090.40,12849.00
414,858.61,1092.19,12653.00
415,858.75,1093.98,12452.00
416,858.88,1095.77,12420.00
417,859.01,1097.56,12245.00
418,859.14,1099.35,12109.00
419,859.28,1101.14,12147.00
420,859.41,1102.93,12198.00
421,859.54,1104.72,12232.00
422,859.67,1106.50,12247.00
423,859.80,1108.29,12506.00
424,859.94,1110.07,12581.00
425,860.07,1111.85,13001.00
426,860.20,1113.63,13287.00
427,860.33,1115.41,13834.00
428,860.46,1117.19,14518.00
429,860.59,1118.97,15858.00
430,860.73,1120.75,17812.00
431,860.86,1122.53,20739.00
432,860.99,1124.30,24234.00
433,861.12,1126.08,27335.00
434,861.25,1127.85,29167.00
435,861.38,1129.62,29578.00
436,861.51,1131.39,27824.00
437,861.65,1133.17,24656.00
438,861.78,1134.93,21174.00
439,861.91,1136.70,17996.00
440,862.04,1138.47,15911.00
441,862.17,1140.24,14618.00
442,862.30,1142.00,13920.00
443,862.43,1143.77,13493.00
444,862.57,1145.53,13328.00
445,862.70,1147.29,13320.00
446,862.83,1149.06,13145.00
447,862.96,1150.82,13303.00
448,863.09,1152.58,13360.00
449,863.22,1154.34,13480.00
450,863.35,1156.09,13650.00
451,863.48,1157.85,13841.00
452,863.61,1159.61,14081.00
453,863.74,1161.36,14504.00
454,863.88,1163.11,15167.00
455,864.01,1164.87,15938.00
456,864.14,1166.62,16579.00
457,864.27,1168.37,16773.00
458,864.40,1170.12,16845.00
459,864.53,1171.87,16661.00
460,864.66,1173.62,16173.00
461,864.79,1175.36,15824.00
462,864.92,1177.11,15373.00
463,865.05,1178.85,15108.00
464,865.18,1180.60,15186.00
465,865.31,1182.34,15468.00
466,865.44,1184.08,15447.00
467,865.57,1185.82,15500.00
468,865.70,1187.56,15464.00
469,865.83,1189.30,15417.00
470,865.96,1191.04,15346.00
471,866.10,1192.78,15266.00
472,866.23,1194.51,15327.00
473,866.36,1196.25,15399.00
474,866.49,1197.98,15501.00
475,866.62,1199.71,15479.00
476,866.75,1201.45,15599.00
477,866.88,1203.18,15723.00
478,867.01,1204.91,15756.00
479,867.14,1206.64,15829.00
480,867.27,1208.36,15863.00
481,867.40,1210.09,15916.00
482,867.53,1211.82,15919.00
483,867.66,1213.54,15871.00
484,867.79,1215.27,16032.00
485,867.92,1216.99,16120.00
486,868.04,1218.71,16153.00
487,868.17,1220.43,16362.00
488,868.30,1222.15,16337.00
489,868.43,1223.87,16318.00
490,868.56,1225.59,16646.00
491,868.69,1227.31,16600.00
492,868.82,1229.02,16624.00
493,868.95,1230.74,16781.00
494,869.08,1232.45,16897.00
495,869.21,1234.16,16954.00
496,869.34,1235.88,17064.00
497,869.47,1237.59,17174.00
498,869.60,1239.30,17315.00
499,869.73,1241.01,17351.00
500,869.86,1242.71,17439.00
501,869.99,1244.42,17532.00
502,870.12,1246.13,17612.00
503,870.24,1247.83,17758.00
504,870.37,1249.54,17846.00
505,870.50,1251.24,18034.00
506,870.63,1252.94,18151.00
507,870.76,1254.64,18335.00
508,870.89,1256.34,18497.00
509,871.02,1258.04,18696.00
510,871.15,1259.74,18843.00
511,871.28,1261.44,19085.00
512,871.41,1263.13,19155.00
513,871.53,1264.83,19584.00
514,871.66,1266.52,19720.00
515,871.79,1268.22,19802.00
516,871.92,1269.91,20148.00
517,872.05,1271.60,20224.00
518,872.18,1273.29,20286.00
519,872.31,1274.98,20591.00
520,872.43,1276.67,20698.00
521,872.56,1278.35,21120.00
522,872.69,1280.04,21639.00
523,872.82,1281.73,22196.00
524,872.95,1283.41,23074.00
525,873.08,1285.09,24806.00
526,873.20,1286.78,27816.00
527,873.33,1288.46,32296.00
528,873.46,1290.14,38123.00
529,873.59,1291.82,43355.00
530,873.72,1293.49,45458.00
531,873.84,1295.17,47562.00
532,873.97,1296.85,45874.00
533,874.10,1298.52,42097.00
534,874.23,1300.20,37433.00
535,874.36,1301.87,33417.00
536,874.48,1303.54,30755.00
537,874.61,1305.21,29317.00
538,874.74,1306.88,28628.00
539,874.87,1308.55,28109.00
540,875.00,1310.22,27976.00
541,875.12,1311.89,27976.00
542,875.25,1313.56,28197.00
543,875.38,1315.22,28225.00
544,875.51,1316.89,28339.00
545,875.63,1318.55,28638.00
546,875.76,1320.21,28638.00
547,875.89,1321.87,28948.00
548,876.02,1323.53,29302.00
549,876.14,1325.19,29336.00
550,876.27,1326.85,29684.00
551,876.40,1328.51,29950.00
552,876.52,1330.16,30293.00
553,876.65,1331.82,30573.00
554,876.78,1333.47,30776.00
555,876.91,1335.13,31071.00
556,877.03,1336.78,31455.00
557,877.16,1338.43,31718.00
558,877.29,1340.08,31999.00
559,877.41,1341.73,32178.00
560,877.54,1343.38,32651.00
561,877.67,1345.03,32639.00
562,877.80,1346.67,33005.00
563,877.92,1348.32,33287.00
564,878.05,1349.96,33485.00
565,878.18,1351.61,33596.00
566,878.30,1353.25,33993.00
567,878.43,1354.89,33932.00
568,878.56,1356.53,34305.00
569,878.68,1358.17,34438.00
570,878.81,1359.81,34512.00
571,878.93,1361.45,35036.00
572,879.06,1363.08,35202.00
573,879.19,1364.72,35642.00
574,879.31,1366.35,35770.00
575,879.44,1367.99,35877.00
576,879.57,1369.62,35930.00
577,879.69,1371.25,35703.00
578,879.82,1372.88,35543.00
579,879.95,1374.51,35215.00
580,880.07,1376.14,34857.00
581,880.20,1377.77,34901.00
582,880.32,1379.39,34606.00
583,880.45,1381.02,34413.00
584,880.58,1382.64,34343.00
585,880.70,1384.27,34259.00
586,880.83,1385.89,34168.00
587,880.95,1387.51,33886.00
588,881.08,1389.13,33797.00
589,881.20,1390.75,33820.00
590,881.33,1392.37,33712.00
591,881.46,1393.99,33463.00
592,881.58,1395.60,33173.00
593,881.71,1397.22,33190.00
594,881.83,1398.83,33236.00
595,881.96,1400.45,32970.00
596,882.08,1402.06,33185.00
597,882.21,1403.67,33017.00
598,882.33,1405.28,33363.00
599,882.46,1406.89,33810.00
600,882.58,1408.50,34769.00
601,882.71,1410.11,35991.00
602,882.84,1411.71,37586.00
603,882.96,1413.32,38856.00
604,883.09,1414.92,39845.00
605,883.21,1416.53,40197.00
606,883.34,1418.13,39660.00
607,883.46,1419.73,38684.00
608,883.59,1421.33,37438.00
609,883.71,1422.93,36670.00
610,883.84,1424.53,35960.00
611,883.96,1426.13,36100.00
612,884.09,1427.72,36518.00
613,884.21,1429.32,37634.00
614,884.33,1430.91,39340.00
615,884.46,1432.51,41641.00
616,884.58,1434.10,44291.00
617,884.71,1435.69,46663.00
618,884.83,1437.28,48822.00
619,884.96,1438.87,49877.00
620,885.08,1440.46,49651.00
621,885.21,1442.05,48426.00
622,885.33,1443.64,46383.00
623,885.45,1445.22,44240.00
624,885.58,1446.81,42040.00
625,885.70,1448.39,40480.00
626,885.83,1449.97,39356.00
627,885.95,1451.55,38438.00
628,886.08,1453.14,38349.00
629,886.20,1454.72,38205.00
630,886.32,1456.29,38255.00
631,886.45,1457.87,38279.00
632,886.57,1459.45,38307.00
633,886.70,1461.02,38279.00
634,886.82,1462.60,37843.00
635,886.94,1464.17,36983.00
636,887.07,1465.75,36161.00
637,887.19,1467.32,34841.00
638,887.31,1468.89,33563.00
639,887.44,1470.46,32100.00
640,887.56,1472.03,30717.00
641,887.68,1473.59,29644.00
642,887.81,1475.16,28497.00
643,887.93,1476.73,27717.00
644,888.06,1478.29,26819.00
645,888.18,1479.86,26178.00
646,888.30,1481.42,25609.00
647,888.43,1482.98,25170.00
648,888.55,1484.54,24757.00
649,888.67,1486.10,24462.00
650,888.79,1487.66,24119.00
651,888.92,1489.22,23777.00
652,889.04,1490.77,23570.00
653,889.16,1492.33,23460.00
654,889.29,1493.88,23104.00
655,889.41,1495.44,23081.00
656,889.53,1496.99,22929.00
657,889.66,1498.54,22670.00
658,889.78,1500.09,22630.00
659,889.90,1501.64,22571.00
660,890.02,1503.19,22332.00
661,890.15,1504.74,22282.00
662,890.27,1506.29,22121.00
663,890.39,1507.83,21913.00
664,890.51,1509.38,21868.00
665,890.64,1510.92,21811.00
666,890.76,1512.47,21673.00
667,890.88,1514.01,21644.00
668,891.00,1515.55,21499.00
669,891.13,1517.09,21323.00
670,891.25,1518.63,21342.00
671,891.37,1520.16,21339.00
672,891.49,1521.70,21228.00
673,891.61,1523.24,21095.00
674,891.74,1524.77,21114.00
675,891.86,1526.31,21107.00
676,891.98,1527.84,20820.00
677,892.10,1529.37,20917.00
678,892.22,1530.90,20747.00
679,892.35,1532.43,20781.00
680,892.47,1533.96,20659.00
681,892.59,1535.49,20644.00
682,892.71,1537.02,20593.00
683,892.83,1538.54,20371.00
684,892.95,1540.07,20385.00
685,893.08,1541.59,20334.00
686,893.20,1543.11,20220.00
687,893.32,1544.64,20175.00
688,893.44,1546.16,20087.00
689,893.56,1547.68,19961.00
690,893.68,1549.20,19961.00
691,893.80,1550.71,19843.00
692,893.92,1552.23,19853.00
693,894.05,1553.75,19674.00
694,894.17,1555.26,19527.00
695,894.29,1556.78,19527.00
696,894.41,1558.29,19524.00
697,894.53,1559.80,19379.00
698,894.65,1561.31,19381.00
699,894.77,1562.82,19366.00
700,894.89,1564.33,19295.00
701,895.01,1565.84,19145.00
702,895.13,1567.35,19012.00
703,895.26,1568.85,19029.00
704,895.38,1570.36,18887.00
705,895.50,1571.86,18957.00
706,895.62,1573.36,18932.00
707,895.74,1574.87,18719.00
708,895.86,1576.37,18755.00
709,895.98,1577.87,18594.00
710,896.10,1579.37,18513.00
711,896.22,1580.87,18282.00
712,896.34,1582.36,18196.00
713,896.46,1583.86,18143.00
714,896.58,1585.35,18086.00
715,896.70,1586.85,18036.00
716,896.82,1588.34,18056.00
717,896.94,1589.83,17888.00
718,897.06,1591.32,17852.00
719,897.18,1592.81,17663.00
720,897.30,1594.30,17826.00
721,897.42,1595.79,17644.00
722,897.54,1597.28,17590.00
723,897.66,1598.76,17549.00
724,897.78,1600.25,17610.00
725,897.90,1601.73,17504.00
726,898.02,1603.22,17470.00
727,898.14,1604.70,17500.00
728,898.26,1606.18,17442.00
729,898.38,1607.66,17428.00
730,898.50,1609.14,17573.00
731,898.62,1610.62,17455.00
732,898.73,1612.10,17416.00
733,898.85,1613.57,17398.00
734,898.97,1615.05,17239.00
735,899.09,1616.52,16902.00
736,899.21,1617.99,16969.00
737,899.33,1619.47,16810.00
738,899.45,1620.94,16830.00
739,899.57,1622.41,16704.00
740,899.69,1623.88,16636.00
741,899.81,1625.35,16494.00
742,899.92,1626.81,16580.00
743,900.04,1628.28,16416.00
744,900.16,1629.74,16425.00
745,900.28,1631.21,16267.00
746,900.40,1632.67,16335.00
747,900.52,1634.13,16122.00
748,900.64,1635.60,16231.00
749,900.76,1637.06,16120.00
750,900.87,1638.51,16162.00
751,900.99,1639.97,15968.00
752,901.11,1641.43,15961.00
753,901.23,1642.89,15871.00
754,901.35,1644.34,15915.00
755,901.46,1645.80,15883.00
756,901.58,1647.25,15652.00
757,901.70,1648.70,15681.00
758,901.82,1650.15,15643.00
759,901.94,1651.60,15577.00
760,902.05,1653.05,15502.00
761,902.17,1654.50,15574.00
762,902.29,1655.95,15542.00
763,902.41,1657.40,15374.00
764,902.53,1658.84,15343.00
765,902.64,1660.28,15356.00
766,902.76,1661.73,15317.00
767,902.88,1663.17,15291.00
768,903.00,1664.61,15280.00
769,903.11,1666.05,15196.00
770,903.23,1667.49,15091.00
771,903.35,1668.93,14960.00
772,903.47,1670.37,14967.00
773,903.58,1671.80,14867.00
774,903.70,1673.24,14899.00
775,903.82,1674.67,14842.00
776,903.93,1676.11,14696.00
777,904.05,1677.54,14654.00
778,904.17,1678.97,14683.00
779,904.29,1680.40,14650.00
780,904.40,1681.83,14541.00
781,904.52,1683.26,14496.00
782,904.64,1684.69,14399.00
783,904.75,1686.11,14408.00
784,904.87,1687.54,14197.00
785,904.99,1688.96,14191.00
786,905.10,1690.39,14132.00
787,905.22,1691.81,14078.00
788,905.34,1693.23,14138.00
789,905.45,1694.65,14060.00
790,905.57,1696.07,13986.00
791,905.69,1697.49,13946.00
792,905.80,1698.91,13773.00
793,905.92,1700.32,13786.00
794,906.03,1701.74,13764.00
795,906.15,1703.15,13727.00
796,906.27,1704.57,13590.00
797,906.38,1705.98,13649.00
798,906.50,1707.39,13484.00
799,906.61,1708.80,13383.00
800,906.73,1710.21,13370.00
801,906.85,1711.62,13364.00
802,906.96,1713.03,13347.00
803,907.08,1714.43,13244.00
804,907.19,1715.84,13242.00
805,907.31,1717.24,13098.00
806,907.42,1718.65,13092.00
807,907.54,1720.05,13052.00
808,907.65,1721.45,13008.00
809,907.77,1722.85,12880.00
810,907.89,1724.25,12946.00
811,908.00,1725.65,12991.00
812,908.12,1727.05,12848.00
813,908.23,1728.44,12729.00
814,908.35,1729.84,12774.00
815,908.46,1731.23,12662.00
816,908.58,1732.63,12622.00
817,908.69,1734.02,12605.00
818,908.81,1735.41,12557.00
819,908.92,1736.80,12525.00
820,909.04,1738.19,12527.00
821,909.15,1739.58,12439.00
822,909.27,1740.97,12488.00
823,909.38,1742.35,12318.00
824,909.49,1743.74,12336.00
825,909.61,1745.12,12276.00
826,909.72,1746.51,12255.00
827,909.84,1747.89,12181.00
828,909.95,1749.27,12157.00
829,910.07,1750.65,12200.00
830,910.18,1752.03,12169.00
831,910.30,1753.41,12162.00
832,910.41,1754.79,12097.00
833,910.52,1756.17,12043.00
834,910.64,1757.54,12146.00
835,910.75,1758.92,12063.00
836,910.87,1760.29,12099.00
837,910.98,1761.66,12020.00
838,911.09,1763.03,11956.00
839,911.21,1764.41,12006.00
840,911.32,1765.78,11887.00
841,911.43,1767.14,11815.00
842,911.55,1768.51,11935.00
843,911.66,1769.88,11922.00
844,911.78,1771.24,11820.00
845,911.89,1772.61,11871.00
846,912.00,1773.97,11876.00
847,912.12,1775.34,11751.00
848,912.23,1776.70,11756.00
849,912.34,1778.06,11741.00
850,912.46,1779.42,11796.00
851,912.57,1780.78,11749.00
852,912.68,1782.13,11726.00
853,912.79,1783.49,11640.00
854,912.91,1784.85,11680.00
855,913.02,1786.20,11614.00
856,913.13,1787.56,11492.00
857,913.25,1788.91,11605.00
858,913.36,1790.26,11595.00
859,913.47,1791.61,11481.00
860,913.58,1792.96,11522.00
861,913.70,1794.31,11557.00
862,913.81,1795.66,11460.00
863,913.92,1797.00,11564.00
864,914.03,1798.35,11401.00
865,914.15,1799.69,11404.00
866,914.26,1801.04,11484.00
867,914.37,1802.38,11423.00
868,914.48,1803.72,11486.00
869,914.60,1805.06,11429.00
870,914.71,1806.40,11406.00
871,914.82,1807.74,11393.00
872,914.93,1809.08,11385.00
873,915.04,1810.42,11380.00
874,915.16,1811.75,11355.00
875,915.27,1813.09,11408.00
876,915.38,1814.42,11290.00
877,915.49,1815.76,11369.00
878,915.60,1817.09,11170.00
879,915.71,1818.42,11298.00
880,915.83,1819.75,11307.00
881,915.94,1821.08,11300.00
882,916.05,1822.40,11327.00
883,916.16,1823.73,11290.00
884,916.27,1825.06,11256.00
885,916.38,1826.38,11271.00
886,916.49,1827.71,11214.00
887,916.61,1829.03,11156.00
888,916.72,1830.35,11092.00
889,916.83,1831.67,11168.00
890,916.94,1832.99,11127.00
891,917.05,1834.31,11224.00
892,917.16,1835.63,11119.00
893,917.27,1836.95,11094.00
894,917.38,1838.26,11115.00
895,917.49,1839.58,11155.00
896,917.60,1840.89,11018.00
897,917.71,1842.20,11028.00
898,917.82,1843.52,11037.00
899,917.93,1844.83,11039.00
900,918.04,1846.14,10878.00
901,918.15,1847.45,10876.00
902,918.27,1848.75,11011.00
903,918.38,1850.06,10929.00
904,918.49,1851.37,10890.00
905,918.60,1852.67,10853.00
906,918.71,1853.98,10828.00
907,918.82,1855.28,10769.00
908,918.93,1856.58,10801.00
909,919.04,1857.88,10789.00
910,919.15,1859.18,10777.00
911,919.26,1860.48,10771.00
912,919.36,1861.78,10643.00
913,919.47,1863.08,10615.00
914,919.58,1864.37,10512.00
915,919.69,1865.67,10533.00
916,919.80,1866.96,10571.00
917,919.91,1868.26,10485.00
918,920.02,1869.55,10470.00
919,920.13,1870.84,10419.00
920,920.24,1872.13,10387.00
921,920.35,1873.42,10322.00
922,920.46,1874.71,10311.00
923,920.57,1875.99,10227.00
924,920.68,1877.28,10187.00
925,920.79,1878.56,10182.00
926,920.89,1879.85,10029.00
927,921.00,1881.13,10007.00
928,921.11,1882.41,9955.00
929,921.22,1883.69,9949.00
930,921.33,1884.97,9926.00
931,921.44,1886.25,9860.00
932,921.55,1887.53,9755.00
933,921.66,1888.81,9721.00
934,921.76,1890.09,9631.00
935,921.87,1891.36,9584.00
936,921.98,1892.63,9550.00
937,922.09,1893.91,9457.00
938,922.20,1895.18,9372.00
939,922.30,1896.45,9407.00
940,922.41,1897.72,9280.00
941,922.52,1898.99,9241.00
942,922.63,1900.26,9198.00
943,922.74,1901.53,9089.00
944,922.84,1902.79,9027.00
945,922.95,1904.06,9060.00
946,923.06,1905.32,8992.00
947,923.17,1906.58,8832.00
948,923.28,1907.85,8819.00
949,923.38,1909.11,8693.00
950,923.49,1910.37,8722.00
951,923.60,1911.63,8636.00
952,923.70,1912.89,8446.00
953,923.81,1914.14,8427.00
954,923.92,1915.40,8337.00
955,924.03,1916.65,8323.00
956,924.13,1917.91,8254.00
957,924.24,1919.16,8167.00
958,924.35,1920.41,8140.00
959,924.45,1921.67,8078.00
960,924.56,1922.92,7991.00
961,924.67,1924.17,7872.00
962,924.78,1925.41,7896.00
963,924.88,1926.66,7866.00
964,924.99,1927.91,7727.00
965,925.09,1929.15,7634.00
966,925.20,1930.40,7618.00
967,925.31,1931.64,7505.00
968,925.41,1932.88,7438.00
969,925.52,1934.12,7375.00
970,925.63,1935.36,7314.00
971,925.73,1936.60,7181.00
972,925.84,1937.84,7181.00
973,925.95,1939.08,7048.00
974,926.05,1940.32,6985.00
975,926.16,1941.55,7027.00
976,926.26,1942.79,6930.00
977,926.37,1944.02,6803.00
978,926.47,1945.25,6767.00
979,926.58,1946.48,6630.00
980,926.69,1947.71,6690.00
981,926.79,1948.94,6597.00
982,926.90,1950.17,6536.00
983,927.00,1951.40,6472.00
984,927.11,1952.62,6432.00
985,927.21,1953.85,6386.00
986,927.32,1955.07,6194.00
987,927.42,1956.30,6152.00
988,927.53,1957.52,6190.00
989,927.63,1958.74,6035.00
990,927.74,1959.96,6029.00
991,927.84,1961.18,5958.00
992,927.95,1962.40,5886.00
993,928.05,1963.62,5819.00
994,928.16,1964.83,5753.00
995,928.26,1966.05,5688.00
996,928.37,1967.26,5674.00
997,928.47,1968.48,5602.00
998,928.58,1969.69,5513.00
999,928.68,1970.90,5439.00
1000,928.79,1972.11,5458.00
1001,928.89,1973.32,5380.00
1002,928.99,1974.53,5295.00
1003,929.10,1975.74,5290.00
1004,929.20,1976.94,5180.00
1005,929.31,1978.15,5135.00
1006,929.41,1979.35,5087.00
1007,929.52,1980.56,5061.00
1008,929.62,1981.76,5032.00
1009,929.72,1982.96,4965.00
1010,929.83,1984.16,4872.00
1011,929.93,1985.36,4915.00
1012,930.03,1986.56,4811.00
1013,930.14,1987.76,4810.00
1014,930.24,1988.95,4765.00
1015,930.34,1990.15,4664.00
1016,930.45,1991.34,4686.00
1017,930.55,1992.54,4621.00
1018,930.65,1993.73,4526.00
1019,930.76,1994.92,4501.00
1020,930.86,1996.11,4457.00
1021,930.96,1997.30,4359.00
1022,931.07,1998.49,4362.00
1023,931.17,1999.68,4303.00
