ENLIGHTEN Version,1.7.2
Measurement ID,20190905-082534-387675-WP-00340
Serial Number,WP-00340
Label,08:25:34 WP-00340
Integration Time,1000
Timestamp,2019-09-05 08:25:34.387675
Note,
Temperature,10.010854111966182
CCD C0,801.7174072265625
CCD C1,0.14122000336647034
CCD C2,-5.609700110653648e-06
CCD C3,-8.541699791919655e-09
CCD Offset,0
CCD Gain,1.9
Laser Wavelength,785
Laser Enable,True
Laser Power,100
Laser Temperature,0
Pixel Count,1024

Pixel,Wavelength,Wavenumber,Processed
0,801.72,265.63,879.00
1,801.86,267.83,1098.00
2,802.00,270.02,1396.00
3,802.14,272.22,1763.00
4,802.28,274.41,2287.00
5,802.42,276.60,2962.00
6,802.56,278.80,3704.00
7,802.71,280.99,4767.00
8,802.85,283.18,6014.00
9,802.99,285.37,7396.00
10,803.13,287.55,8967.00
11,803.27,289.74,10707.00
12,803.41,291.93,12226.00
13,803.55,294.11,13832.00
14,803.69,296.30,15253.00
15,803.83,298.48,16552.00
16,803.98,300.66,17511.00
17,804.12,302.84,18317.00
18,804.26,305.02,18730.00
19,804.40,307.20,19069.00
20,804.54,309.38,19253.00
21,804.68,311.56,19222.00
22,804.82,313.74,19284.00
23,804.96,315.91,19311.00
24,805.10,318.09,19414.00
25,805.24,320.26,19229.00
26,805.39,322.43,19480.00
27,805.53,324.61,19619.00
28,805.67,326.78,19646.00
29,805.81,328.95,19748.00
30,805.95,331.12,19849.00
31,806.09,333.28,20060.00
32,806.23,335.45,20073.00
33,806.37,337.62,20056.00
34,806.51,339.78,20180.00
35,806.65,341.95,20306.00
36,806.79,344.11,20262.00
37,806.93,346.27,20272.00
38,807.08,348.43,20412.00
39,807.22,350.59,20422.00
40,807.36,352.75,20494.00
41,807.50,354.91,20593.00
42,807.64,357.07,20592.00
43,807.78,359.23,20591.00
44,807.92,361.38,20483.00
45,808.06,363.54,20492.00
46,808.20,365.69,20556.00
47,808.34,367.84,20516.00
48,808.48,370.00,20430.00
49,808.62,372.15,20635.00
50,808.76,374.30,20635.00
51,808.90,376.45,20774.00
52,809.04,378.59,20762.00
53,809.19,380.74,20937.00
54,809.33,382.89,20977.00
55,809.47,385.03,21004.00
56,809.61,387.18,21166.00
57,809.75,389.32,21291.00
58,809.89,391.46,21331.00
59,810.03,393.60,21552.00
60,810.17,395.74,21479.00
61,810.31,397.88,21674.00
62,810.45,400.02,21763.00
63,810.59,402.16,22111.00
64,810.73,404.29,22145.00
65,810.87,406.43,22295.00
66,811.01,408.57,22583.00
67,811.15,410.70,22780.00
68,811.29,412.83,23252.00
69,811.43,414.96,23371.00
70,811.57,417.09,23672.00
71,811.71,419.22,24187.00
72,811.85,421.35,24414.00
73,811.99,423.48,24723.00
74,812.13,425.61,25117.00
75,812.27,427.73,25527.00
76,812.41,429.86,26014.00
77,812.55,431.98,26484.00
78,812.69,434.11,26907.00
79,812.83,436.23,27331.00
80,812.97,438.35,27835.00
81,813.11,440.47,28137.00
82,813.26,442.59,28341.00
83,813.40,444.71,28637.00
84,813.54,446.82,28737.00
85,813.68,448.94,28602.00
86,813.82,451.05,28237.00
87,813.96,453.17,27936.00
88,814.10,455.28,27310.00
89,814.24,457.39,26764.00
90,814.38,459.51,25993.00
91,814.52,461.62,25366.00
92,814.66,463.73,24552.00
93,814.80,465.83,24070.00
94,814.94,467.94,23416.00
95,815.08,470.05,23191.00
96,815.22,472.15,22754.00
97,815.36,474.26,22430.00
98,815.50,476.36,22169.00
99,815.63,478.47,21949.00
100,815.77,480.57,21808.00
101,815.91,482.67,21613.00
102,816.05,484.77,21588.00
103,816.19,486.87,21449.00
104,816.33,488.97,21441.00
105,816.47,491.06,21428.00
106,816.61,493.16,21336.00
107,816.75,495.25,21291.00
108,816.89,497.35,21133.00
109,817.03,499.44,21019.00
110,817.17,501.53,21002.00
111,817.31,503.62,20972.00
112,817.45,505.71,20874.00
113,817.59,507.80,20802.00
114,817.73,509.89,20790.00
115,817.87,511.98,20666.00
116,818.01,514.07,20690.00
117,818.15,516.15,20580.00
118,818.29,518.24,20618.00
119,818.43,520.32,20514.00
120,818.57,522.40,20599.00
121,818.71,524.48,20375.00
122,818.85,526.56,20336.00
123,818.99,528.64,20361.00
124,819.13,530.72,20479.00
125,819.27,532.80,20426.00
126,819.40,534.88,20471.00
127,819.54,536.95,20464.00
128,819.68,539.03,20302.00
129,819.82,541.10,20433.00
130,819.96,543.17,20494.00
131,820.10,545.24,20580.00
132,820.24,547.32,20494.00
133,820.38,549.39,20629.00
134,820.52,551.45,20744.00
135,820.66,553.52,20629.00
136,820.80,555.59,20928.00
137,820.94,557.66,20957.00
138,821.08,559.72,21006.00
139,821.22,561.78,21089.00
140,821.35,563.85,21211.00
141,821.49,565.91,21375.00
142,821.63,567.97,21711.00
143,821.77,570.03,21683.00
144,821.91,572.09,21886.00
145,822.05,574.15,22080.00
146,822.19,576.21,22403.00
147,822.33,578.26,22655.00
148,822.47,580.32,22911.00
149,822.61,582.37,23292.00
150,822.75,584.42,23608.00
151,822.88,586.48,24069.00
152,823.02,588.53,24342.00
153,823.16,590.58,24647.00
154,823.30,592.63,24991.00
155,823.44,594.68,25355.00
156,823.58,596.72,25870.00
157,823.72,598.77,26104.00
158,823.86,600.82,26509.00
159,824.00,602.86,27087.00
160,824.13,604.90,27185.00
161,824.27,606.95,27441.00
162,824.41,608.99,27523.00
163,824.55,611.03,27380.00
164,824.69,613.07,27272.00
165,824.83,615.11,26837.00
166,824.97,617.15,26539.00
167,825.10,619.18,25958.00
168,825.24,621.22,25530.00
169,825.38,623.25,24968.00
170,825.52,625.29,24609.00
171,825.66,627.32,24194.00
172,825.80,629.35,23917.00
173,825.94,631.38,23952.00
174,826.07,633.41,23446.00
175,826.21,635.44,23118.00
176,826.35,637.47,22790.00
177,826.49,639.50,22257.00
178,826.63,641.52,21841.00
179,826.77,643.55,21319.00
180,826.91,645.57,21074.00
181,827.04,647.60,20758.00
182,827.18,649.62,20726.00
183,827.32,651.64,20596.00
184,827.46,653.66,20382.00
185,827.60,655.68,20237.00
186,827.74,657.70,20328.00
187,827.87,659.71,20241.00
188,828.01,661.73,20120.00
189,828.15,663.75,20165.00
190,828.29,665.76,19957.00
191,828.43,667.77,20064.00
192,828.56,669.79,20069.00
193,828.70,671.80,19991.00
194,828.84,673.81,19851.00
195,828.98,675.82,19710.00
196,829.12,677.83,19790.00
197,829.25,679.83,19669.00
198,829.39,681.84,19709.00
199,829.53,683.84,19573.00
200,829.67,685.85,19480.00
201,829.81,687.85,19580.00
202,829.94,689.86,19537.00
203,830.08,691.86,19602.00
204,830.22,693.86,19459.00
205,830.36,695.86,19553.00
206,830.50,697.86,19481.00
207,830.63,699.85,19590.00
208,830.77,701.85,19379.00
209,830.91,703.85,19445.00
210,831.05,705.84,19487.00
211,831.18,707.84,19475.00
212,831.32,709.83,19539.00
213,831.46,711.82,19544.00
214,831.60,713.81,19487.00
215,831.74,715.80,19579.00
216,831.87,717.79,19518.00
217,832.01,719.78,19598.00
218,832.15,721.76,19480.00
219,832.29,723.75,19434.00
220,832.42,725.74,19446.00
221,832.56,727.72,19402.00
222,832.70,729.70,19381.00
223,832.84,731.68,19181.00
224,832.97,733.67,19157.00
225,833.11,735.65,18927.00
226,833.25,737.62,19031.00
227,833.39,739.60,19021.00
228,833.52,741.58,19069.00
229,833.66,743.56,19151.00
230,833.80,745.53,19377.00
231,833.93,747.51,19455.00
232,834.07,749.48,19693.00
233,834.21,751.45,19830.00
234,834.35,753.42,19755.00
235,834.48,755.39,19417.00
236,834.62,757.36,19303.00
237,834.76,759.33,19198.00
238,834.89,761.30,18974.00
239,835.03,763.26,18790.00
240,835.17,765.23,18843.00
241,835.31,767.19,18655.00
242,835.44,769.16,18755.00
243,835.58,771.12,18730.00
244,835.72,773.08,18769.00
245,835.85,775.04,18801.00
246,835.99,777.00,18974.00
247,836.13,778.96,19111.00
248,836.26,780.92,19518.00
249,836.40,782.87,19894.00
250,836.54,784.83,20045.00
251,836.68,786.78,20289.00
252,836.81,788.74,20163.00
253,836.95,790.69,19777.00
254,837.09,792.64,19663.00
255,837.22,794.59,19231.00
256,837.36,796.54,19096.00
257,837.50,798.49,18951.00
258,837.63,800.44,19078.00
259,837.77,802.38,19006.00
260,837.91,804.33,18932.00
261,838.04,806.27,18843.00
262,838.18,808.22,19061.00
263,838.31,810.16,19069.00
264,838.45,812.10,19263.00
265,838.59,814.04,19261.00
266,838.72,815.98,19474.00
267,838.86,817.92,19699.00
268,839.00,819.86,19897.00
269,839.13,821.80,20246.00
270,839.27,823.73,20237.00
271,839.41,825.67,20464.00
272,839.54,827.60,20342.00
273,839.68,829.53,20718.00
274,839.81,831.47,20522.00
275,839.95,833.40,20596.00
276,840.09,835.33,20669.00
277,840.22,837.26,20732.00
278,840.36,839.18,20692.00
279,840.50,841.11,20431.00
280,840.63,843.04,20421.00
281,840.77,844.96,20218.00
282,840.90,846.89,19845.00
283,841.04,848.81,19518.00
284,841.18,850.73,19349.00
285,841.31,852.65,19291.00
286,841.45,854.57,19050.00
287,841.58,856.49,19139.00
288,841.72,858.41,18837.00
289,841.86,860.33,18892.00
290,841.99,862.24,18745.00
291,842.13,864.16,18900.00
292,842.26,866.07,18727.00
293,842.40,867.99,18584.00
294,842.53,869.90,18774.00
295,842.67,871.81,18621.00
296,842.81,873.72,18677.00
297,842.94,875.63,18605.00
298,843.08,877.54,18673.00
299,843.21,879.44,18765.00
300,843.35,881.35,18770.00
301,843.48,883.26,18875.00
302,843.62,885.16,18742.00
303,843.75,887.06,18734.00
304,843.89,888.97,18723.00
305,844.03,890.87,18580.00
306,844.16,892.77,18563.00
307,844.30,894.67,18407.00
308,844.43,896.57,18300.00
309,844.57,898.46,18114.00
310,844.70,900.36,17979.00
311,844.84,902.26,17897.00
312,844.97,904.15,17779.00
313,845.11,906.04,17724.00
314,845.24,907.94,17760.00
315,845.38,909.83,17699.00
316,845.51,911.72,17602.00
317,845.65,913.61,17626.00
318,845.78,915.50,17586.00
319,845.92,917.38,17646.00
320,846.05,919.27,17617.00
321,846.19,921.16,17644.00
322,846.32,923.04,17707.00
323,846.46,924.92,17560.00
324,846.59,926.81,17561.00
325,846.73,928.69,17521.00
326,846.86,930.57,17536.00
327,847.00,932.45,17465.00
328,847.13,934.33,17481.00
329,847.27,936.20,17508.00
330,847.40,938.08,17513.00
331,847.54,939.96,17507.00
332,847.67,941.83,17755.00
333,847.81,943.71,17737.00
334,847.94,945.58,17779.00
335,848.08,947.45,17762.00
336,848.21,949.32,17726.00
337,848.34,951.19,17713.00
338,848.48,953.06,17766.00
339,848.61,954.93,17688.00
340,848.75,956.79,17486.00
341,848.88,958.66,17347.00
342,849.02,960.52,17281.00
343,849.15,962.39,17121.00
344,849.29,964.25,16918.00
345,849.42,966.11,16813.00
346,849.55,967.97,16788.00
347,849.69,969.83,16638.00
348,849.82,971.69,16668.00
349,849.96,973.55,16617.00
350,850.09,975.41,16642.00
351,850.23,977.26,16647.00
352,850.36,979.12,16531.00
353,850.49,980.97,16592.00
354,850.63,982.82,16476.00
355,850.76,984.68,16588.00
356,850.90,986.53,16676.00
357,851.03,988.38,16552.00
358,851.16,990.23,16608.00
359,851.30,992.07,16729.00
360,851.43,993.92,16770.00
361,851.56,995.77,17123.00
362,851.70,997.61,17364.00
363,851.83,999.46,17686.00
364,851.97,1001.30,17854.00
365,852.10,1003.14,17870.00
366,852.23,1004.98,17749.00
367,852.37,1006.82,17579.00
368,852.50,1008.66,17163.00
369,852.63,1010.50,16982.00
370,852.77,1012.34,16996.00
371,852.90,1014.17,16847.00
372,853.04,1016.01,16808.00
373,853.17,1017.84,16740.00
374,853.30,1019.68,16771.00
375,853.44,1021.51,16840.00
376,853.57,1023.34,16821.00
377,853.70,1025.17,16790.00
378,853.84,1027.00,16874.00
379,853.97,1028.83,16813.00
380,854.10,1030.65,16910.00
381,854.24,1032.48,16866.00
382,854.37,1034.31,16923.00
383,854.50,1036.13,17034.00
384,854.64,1037.95,17062.00
385,854.77,1039.77,17249.00
386,854.90,1041.60,17437.00
387,855.03,1043.42,17428.00
388,855.17,1045.24,17865.00
389,855.30,1047.05,18377.00
390,855.43,1048.87,19231.00
391,855.57,1050.69,20684.00
392,855.70,1052.50,23168.00
393,855.83,1054.32,27137.00
394,855.96,1056.13,32872.00
395,856.10,1057.94,38956.00
396,856.23,1059.75,43592.00
397,856.36,1061.56,45808.00
398,856.50,1063.37,45053.00
399,856.63,1065.18,41147.00
400,856.76,1066.99,35503.00
401,856.89,1068.80,29977.00
402,857.03,1070.60,25768.00
403,857.16,1072.41,23244.00
404,857.29,1074.21,21972.00
405,857.42,1076.01,21536.00
406,857.56,1077.81,21276.00
407,857.69,1079.61,21166.00
408,857.82,1081.41,21192.00
409,857.95,1083.21,20711.00
410,858.09,1085.01,20566.00
411,858.22,1086.81,20435.00
412,858.35,1088.60,20195.00
413,858.48,1090.40,19979.00
414,858.61,1092.19,19622.00
415,858.75,1093.98,19307.00
416,858.88,1095.77,19145.00
417,859.01,1097.56,18812.00
418,859.14,1099.35,18664.00
419,859.28,1101.14,18371.00
420,859.41,1102.93,18333.00
421,859.54,1104.72,18289.00
422,859.67,1106.50,18182.00
423,859.80,1108.29,18514.00
424,859.94,1110.07,18894.00
425,860.07,1111.85,19289.00
426,860.20,1113.63,19846.00
427,860.33,1115.41,20739.00
428,860.46,1117.19,21993.00
429,860.59,1118.97,23771.00
430,860.73,1120.75,26930.00
431,860.86,1122.53,31646.00
432,860.99,1124.30,37514.00
433,861.12,1126.08,42809.00
434,861.25,1127.85,46288.00
435,861.38,1129.62,46714.00
436,861.51,1131.39,43530.00
437,861.65,1133.17,38070.00
438,861.78,1134.93,31961.00
439,861.91,1136.70,26321.00
440,862.04,1138.47,22105.00
441,862.17,1140.24,19959.00
442,862.30,1142.00,18459.00
443,862.43,1143.77,17574.00
444,862.57,1145.53,17323.00
445,862.70,1147.29,16841.00
446,862.83,1149.06,16771.00
447,862.96,1150.82,16586.00
448,863.09,1152.58,16526.00
449,863.22,1154.34,16680.00
450,863.35,1156.09,16678.00
451,863.48,1157.85,16844.00
452,863.61,1159.61,17154.00
453,863.74,1161.36,17754.00
454,863.88,1163.11,18711.00
455,864.01,1164.87,19748.00
456,864.14,1166.62,20805.00
457,864.27,1168.37,21208.00
458,864.40,1170.12,21222.00
459,864.53,1171.87,20667.00
460,864.66,1173.62,19811.00
461,864.79,1175.36,18849.00
462,864.92,1177.11,18457.00
463,865.05,1178.85,18396.00
464,865.18,1180.60,18707.00
465,865.31,1182.34,18955.00
466,865.44,1184.08,19133.00
467,865.57,1185.82,19063.00
468,865.70,1187.56,18753.00
469,865.83,1189.30,18374.00
470,865.96,1191.04,17755.00
471,866.10,1192.78,17260.00
472,866.23,1194.51,16806.00
473,866.36,1196.25,16596.00
474,866.49,1197.98,16186.00
475,866.62,1199.71,16391.00
476,866.75,1201.45,16296.00
477,866.88,1203.18,16290.00
478,867.01,1204.91,16510.00
479,867.14,1206.64,16330.00
480,867.27,1208.36,16310.00
481,867.40,1210.09,16052.00
482,867.53,1211.82,15771.00
483,867.66,1213.54,15537.00
484,867.79,1215.27,15465.00
485,867.92,1216.99,15375.00
486,868.04,1218.71,15368.00
487,868.17,1220.43,15379.00
488,868.30,1222.15,15177.00
489,868.43,1223.87,15133.00
490,868.56,1225.59,15169.00
491,868.69,1227.31,15055.00
492,868.82,1229.02,14903.00
493,868.95,1230.74,15015.00
494,869.08,1232.45,14943.00
495,869.21,1234.16,14882.00
496,869.34,1235.88,14816.00
497,869.47,1237.59,14749.00
498,869.60,1239.30,14771.00
499,869.73,1241.01,14785.00
500,869.86,1242.71,14838.00
501,869.99,1244.42,14947.00
502,870.12,1246.13,14947.00
503,870.24,1247.83,15105.00
504,870.37,1249.54,15151.00
505,870.50,1251.24,15289.00
506,870.63,1252.94,15320.00
507,870.76,1254.64,15450.00
508,870.89,1256.34,15512.00
509,871.02,1258.04,15734.00
510,871.15,1259.74,15808.00
511,871.28,1261.44,15894.00
512,871.41,1263.13,16206.00
513,871.53,1264.83,16345.00
514,871.66,1266.52,16453.00
515,871.79,1268.22,16534.00
516,871.92,1269.91,16705.00
517,872.05,1271.60,16767.00
518,872.18,1273.29,16931.00
519,872.31,1274.98,16942.00
520,872.43,1276.67,17127.00
521,872.56,1278.35,17346.00
522,872.69,1280.04,17871.00
523,872.82,1281.73,18594.00
524,872.95,1283.41,19775.00
525,873.08,1285.09,22367.00
526,873.20,1286.78,26768.00
527,873.33,1288.46,34367.00
528,873.46,1290.14,43674.00
529,873.59,1291.82,52179.00
530,873.72,1293.49,55425.00
531,873.84,1295.17,58671.00
532,873.97,1296.85,56103.00
533,874.10,1298.52,48534.00
534,874.23,1300.20,39710.00
535,874.36,1301.87,32113.00
536,874.48,1303.54,26713.00
537,874.61,1305.21,23481.00
538,874.74,1306.88,21556.00
539,874.87,1308.55,20444.00
540,875.00,1310.22,19461.00
541,875.12,1311.89,18702.00
542,875.25,1313.56,18116.00
543,875.38,1315.22,17447.00
544,875.51,1316.89,16948.00
545,875.63,1318.55,16734.00
546,875.76,1320.21,16329.00
547,875.89,1321.87,15966.00
548,876.02,1323.53,15696.00
549,876.14,1325.19,15594.00
550,876.27,1326.85,15356.00
551,876.40,1328.51,15071.00
552,876.52,1330.16,14836.00
553,876.65,1331.82,14614.00
554,876.78,1333.47,14425.00
555,876.91,1335.13,14174.00
556,877.03,1336.78,14199.00
557,877.16,1338.43,14111.00
558,877.29,1340.08,14106.00
559,877.41,1341.73,14181.00
560,877.54,1343.38,14311.00
561,877.67,1345.03,14193.00
562,877.80,1346.67,14174.00
563,877.92,1348.32,13998.00
564,878.05,1349.96,13910.00
565,878.18,1351.61,13815.00
566,878.30,1353.25,13860.00
567,878.43,1354.89,13730.00
568,878.56,1356.53,13773.00
569,878.68,1358.17,13952.00
570,878.81,1359.81,14172.00
571,878.93,1361.45,14473.00
572,879.06,1363.08,14939.00
573,879.19,1364.72,15111.00
574,879.31,1366.35,15634.00
575,879.44,1367.99,15794.00
576,879.57,1369.62,15886.00
577,879.69,1371.25,15576.00
578,879.82,1372.88,15274.00
579,879.95,1374.51,14741.00
580,880.07,1376.14,14256.00
581,880.20,1377.77,13910.00
582,880.32,1379.39,13674.00
583,880.45,1381.02,13324.00
584,880.58,1382.64,13408.00
585,880.70,1384.27,13260.00
586,880.83,1385.89,13166.00
587,880.95,1387.51,13107.00
588,881.08,1389.13,13107.00
589,881.20,1390.75,13181.00
590,881.33,1392.37,13165.00
591,881.46,1393.99,13162.00
592,881.58,1395.60,13324.00
593,881.71,1397.22,13427.00
594,881.83,1398.83,13487.00
595,881.96,1400.45,13687.00
596,882.08,1402.06,13950.00
597,882.21,1403.67,14351.00
598,882.33,1405.28,14977.00
599,882.46,1406.89,16132.00
600,882.58,1408.50,18201.00
601,882.71,1410.11,20698.00
602,882.84,1411.71,24023.00
603,882.96,1413.32,26880.00
604,883.09,1414.92,28963.00
605,883.21,1416.53,29776.00
606,883.34,1418.13,29338.00
607,883.46,1419.73,27820.00
608,883.59,1421.33,25821.00
609,883.71,1422.93,24343.00
610,883.84,1424.53,23684.00
611,883.96,1426.13,23893.00
612,884.09,1427.72,25174.00
613,884.21,1429.32,27401.00
614,884.33,1430.91,30528.00
615,884.46,1432.51,34853.00
616,884.58,1434.10,39925.00
617,884.71,1435.69,44576.00
618,884.83,1437.28,48653.00
619,884.96,1438.87,51055.00
620,885.08,1440.46,51293.00
621,885.21,1442.05,49699.00
622,885.33,1443.64,46653.00
623,885.45,1445.22,42921.00
624,885.58,1446.81,39669.00
625,885.70,1448.39,36997.00
626,885.83,1449.97,35321.00
627,885.95,1451.55,34286.00
628,886.08,1453.14,34146.00
629,886.20,1454.72,34235.00
630,886.32,1456.29,34782.00
631,886.45,1457.87,34973.00
632,886.57,1459.45,35399.00
633,886.70,1461.02,35468.00
634,886.82,1462.60,35012.00
635,886.94,1464.17,34149.00
636,887.07,1465.75,32665.00
637,887.19,1467.32,30860.00
638,887.31,1468.89,28802.00
639,887.44,1470.46,26448.00
640,887.56,1472.03,24428.00
641,887.68,1473.59,22461.00
642,887.81,1475.16,20683.00
643,887.93,1476.73,19341.00
644,888.06,1478.29,18034.00
645,888.18,1479.86,17098.00
646,888.30,1481.42,16372.00
647,888.43,1482.98,15641.00
648,888.55,1484.54,15093.00
649,888.67,1486.10,14604.00
650,888.79,1487.66,14261.00
651,888.92,1489.22,13919.00
652,889.04,1490.77,13704.00
653,889.16,1492.33,13455.00
654,889.29,1493.88,13278.00
655,889.41,1495.44,13257.00
656,889.53,1496.99,12983.00
657,889.66,1498.54,12725.00
658,889.78,1500.09,12687.00
659,889.90,1501.64,12589.00
660,890.02,1503.19,12415.00
661,890.15,1504.74,12379.00
662,890.27,1506.29,12268.00
663,890.39,1507.83,12162.00
664,890.51,1509.38,12029.00
665,890.64,1510.92,12078.00
666,890.76,1512.47,12019.00
667,890.88,1514.01,11917.00
668,891.00,1515.55,11954.00
669,891.13,1517.09,11852.00
670,891.25,1518.63,11776.00
671,891.37,1520.16,11758.00
672,891.49,1521.70,11694.00
673,891.61,1523.24,11734.00
674,891.74,1524.77,11604.00
675,891.86,1526.31,11638.00
676,891.98,1527.84,11660.00
677,892.10,1529.37,11638.00
678,892.22,1530.90,11572.00
679,892.35,1532.43,11513.00
680,892.47,1533.96,11484.00
681,892.59,1535.49,11548.00
682,892.71,1537.02,11487.00
683,892.83,1538.54,11383.00
684,892.95,1540.07,11431.00
685,893.08,1541.59,11490.00
686,893.20,1543.11,11376.00
687,893.32,1544.64,11435.00
688,893.44,1546.16,11389.00
689,893.56,1547.68,11266.00
690,893.68,1549.20,11311.00
691,893.80,1550.71,11262.00
692,893.92,1552.23,11177.00
693,894.05,1553.75,11214.00
694,894.17,1555.26,11186.00
695,894.29,1556.78,11015.00
696,894.41,1558.29,11157.00
697,894.53,1559.80,11013.00
698,894.65,1561.31,11036.00
699,894.77,1562.82,10922.00
700,894.89,1564.33,10897.00
701,895.01,1565.84,10939.00
702,895.13,1567.35,10872.00
703,895.26,1568.85,10884.00
704,895.38,1570.36,10941.00
705,895.50,1571.86,11039.00
706,895.62,1573.36,11095.00
707,895.74,1574.87,10902.00
708,895.86,1576.37,10828.00
709,895.98,1577.87,10870.00
710,896.10,1579.37,10689.00
711,896.22,1580.87,10636.00
712,896.34,1582.36,10529.00
713,896.46,1583.86,10406.00
714,896.58,1585.35,10476.00
715,896.70,1586.85,10435.00
716,896.82,1588.34,10406.00
717,896.94,1589.83,10412.00
718,897.06,1591.32,10305.00
719,897.18,1592.81,10322.00
720,897.30,1594.30,10440.00
721,897.42,1595.79,10316.00
722,897.54,1597.28,10389.00
723,897.66,1598.76,10391.00
724,897.78,1600.25,10487.00
725,897.90,1601.73,10548.00
726,898.02,1603.22,10731.00
727,898.14,1604.70,11041.00
728,898.26,1606.18,11264.00
729,898.38,1607.66,11531.00
730,898.50,1609.14,11663.00
731,898.62,1610.62,11714.00
732,898.73,1612.10,11831.00
733,898.85,1613.57,11562.00
734,898.97,1615.05,11242.00
735,899.09,1616.52,11056.00
736,899.21,1617.99,10714.00
737,899.33,1619.47,10478.00
738,899.45,1620.94,10235.00
739,899.57,1622.41,10151.00
740,899.69,1623.88,9883.00
741,899.81,1625.35,9790.00
742,899.92,1626.81,9812.00
743,900.04,1628.28,9622.00
744,900.16,1629.74,9715.00
745,900.28,1631.21,9537.00
746,900.40,1632.67,9519.00
747,900.52,1634.13,9572.00
748,900.64,1635.60,9427.00
749,900.76,1637.06,9458.00
750,900.87,1638.51,9337.00
751,900.99,1639.97,9316.00
752,901.11,1641.43,9407.00
753,901.23,1642.89,9259.00
754,901.35,1644.34,9157.00
755,901.46,1645.80,9166.00
756,901.58,1647.25,9138.00
757,901.70,1648.70,9110.00
758,901.82,1650.15,9069.00
759,901.94,1651.60,9118.00
760,902.05,1653.05,9042.00
761,902.17,1654.50,8977.00
762,902.29,1655.95,8995.00
763,902.41,1657.40,8969.00
764,902.53,1658.84,8905.00
765,902.64,1660.28,8980.00
766,902.76,1661.73,8899.00
767,902.88,1663.17,8918.00
768,903.00,1664.61,8856.00
769,903.11,1666.05,8804.00
770,903.23,1667.49,8859.00
771,903.35,1668.93,8819.00
772,903.47,1670.37,8684.00
773,903.58,1671.80,8731.00
774,903.70,1673.24,8662.00
775,903.82,1674.67,8709.00
776,903.93,1676.11,8775.00
777,904.05,1677.54,8686.00
778,904.17,1678.97,8570.00
779,904.29,1680.40,8575.00
780,904.40,1681.83,8526.00
781,904.52,1683.26,8535.00
782,904.64,1684.69,8524.00
783,904.75,1686.11,8536.00
784,904.87,1687.54,8507.00
785,904.99,1688.96,8428.00
786,905.10,1690.39,8571.00
787,905.22,1691.81,8439.00
788,905.34,1693.23,8425.00
789,905.45,1694.65,8351.00
790,905.57,1696.07,8412.00
791,905.69,1697.49,8290.00
792,905.80,1698.91,8325.00
793,905.92,1700.32,8251.00
794,906.03,1701.74,8194.00
795,906.15,1703.15,8239.00
796,906.27,1704.57,8204.00
797,906.38,1705.98,8178.00
798,906.50,1707.39,8129.00
799,906.61,1708.80,8138.00
800,906.73,1710.21,8146.00
801,906.85,1711.62,8078.00
802,906.96,1713.03,8046.00
803,907.08,1714.43,7973.00
804,907.19,1715.84,8013.00
805,907.31,1717.24,7986.00
806,907.42,1718.65,7964.00
807,907.54,1720.05,7933.00
808,907.65,1721.45,7891.00
809,907.77,1722.85,7923.00
810,907.89,1724.25,7942.00
811,908.00,1725.65,7822.00
812,908.12,1727.05,7867.00
813,908.23,1728.44,7744.00
814,908.35,1729.84,7811.00
815,908.46,1731.23,7754.00
816,908.58,1732.63,7640.00
817,908.69,1734.02,7746.00
818,908.81,1735.41,7636.00
819,908.92,1736.80,7634.00
820,909.04,1738.19,7678.00
821,909.15,1739.58,7642.00
822,909.27,1740.97,7606.00
823,909.38,1742.35,7533.00
824,909.49,1743.74,7537.00
825,909.61,1745.12,7546.00
826,909.72,1746.51,7560.00
827,909.84,1747.89,7470.00
828,909.95,1749.27,7370.00
829,910.07,1750.65,7372.00
830,910.18,1752.03,7391.00
831,910.30,1753.41,7419.00
832,910.41,1754.79,7371.00
833,910.52,1756.17,7307.00
834,910.64,1757.54,7346.00
835,910.75,1758.92,7289.00
836,910.87,1760.29,7314.00
837,910.98,1761.66,7270.00
838,911.09,1763.03,7170.00
839,911.21,1764.41,7157.00
840,911.32,1765.78,7103.00
841,911.43,1767.14,7124.00
842,911.55,1768.51,7128.00
843,911.66,1769.88,7172.00
844,911.78,1771.24,7123.00
845,911.89,1772.61,7008.00
846,912.00,1773.97,7077.00
847,912.12,1775.34,7014.00
848,912.23,1776.70,6939.00
849,912.34,1778.06,6979.00
850,912.46,1779.42,6938.00
851,912.57,1780.78,6955.00
852,912.68,1782.13,6902.00
853,912.79,1783.49,6843.00
854,912.91,1784.85,6904.00
855,913.02,1786.20,6791.00
856,913.13,1787.56,6781.00
857,913.25,1788.91,6694.00
858,913.36,1790.26,6721.00
859,913.47,1791.61,6639.00
860,913.58,1792.96,6637.00
861,913.70,1794.31,6631.00
862,913.81,1795.66,6694.00
863,913.92,1797.00,6598.00
864,914.03,1798.35,6605.00
865,914.15,1799.69,6497.00
866,914.26,1801.04,6485.00
867,914.37,1802.38,6453.00
868,914.48,1803.72,6379.00
869,914.60,1805.06,6527.00
870,914.71,1806.40,6384.00
871,914.82,1807.74,6383.00
872,914.93,1809.08,6359.00
873,915.04,1810.42,6297.00
874,915.16,1811.75,6316.00
875,915.27,1813.09,6348.00
876,915.38,1814.42,6240.00
877,915.49,1815.76,6246.00
878,915.60,1817.09,6129.00
879,915.71,1818.42,6257.00
880,915.83,1819.75,6142.00
881,915.94,1821.08,6133.00
882,916.05,1822.40,6106.00
883,916.16,1823.73,6076.00
884,916.27,1825.06,6059.00
885,916.38,1826.38,6028.00
886,916.49,1827.71,6052.00
887,916.61,1829.03,5964.00
888,916.72,1830.35,5941.00
889,916.83,1831.67,5945.00
890,916.94,1832.99,5910.00
891,917.05,1834.31,5918.00
892,917.16,1835.63,5848.00
893,917.27,1836.95,5816.00
894,917.38,1838.26,5808.00
895,917.49,1839.58,5711.00
896,917.60,1840.89,5772.00
897,917.71,1842.20,5774.00
898,917.82,1843.52,5671.00
899,917.93,1844.83,5702.00
900,918.04,1846.14,5684.00
901,918.15,1847.45,5597.00
902,918.27,1848.75,5659.00
903,918.38,1850.06,5567.00
904,918.49,1851.37,5539.00
905,918.60,1852.67,5513.00
906,918.71,1853.98,5482.00
907,918.82,1855.28,5546.00
908,918.93,1856.58,5492.00
909,919.04,1857.88,5442.00
910,919.15,1859.18,5475.00
911,919.26,1860.48,5365.00
912,919.36,1861.78,5380.00
913,919.47,1863.08,5350.00
914,919.58,1864.37,5340.00
915,919.69,1865.67,5340.00
916,919.80,1866.96,5275.00
917,919.91,1868.26,5302.00
918,920.02,1869.55,5272.00
919,920.13,1870.84,5235.00
920,920.24,1872.13,5191.00
921,920.35,1873.42,5178.00
922,920.46,1874.71,5142.00
923,920.57,1875.99,5137.00
924,920.68,1877.28,5097.00
925,920.79,1878.56,5089.00
926,920.89,1879.85,5127.00
927,921.00,1881.13,5064.00
928,921.11,1882.41,5013.00
929,921.22,1883.69,5066.00
930,921.33,1884.97,4927.00
931,921.44,1886.25,4973.00
932,921.55,1887.53,4936.00
933,921.66,1888.81,4909.00
934,921.76,1890.09,4874.00
935,921.87,1891.36,4801.00
936,921.98,1892.63,4889.00
937,922.09,1893.91,4801.00
938,922.20,1895.18,4754.00
939,922.30,1896.45,4769.00
940,922.41,1897.72,4725.00
941,922.52,1898.99,4718.00
942,922.63,1900.26,4704.00
943,922.74,1901.53,4687.00
944,922.84,1902.79,4641.00
945,922.95,1904.06,4612.00
946,923.06,1905.32,4605.00
947,923.17,1906.58,4575.00
948,923.28,1907.85,4594.00
949,923.38,1909.11,4542.00
950,923.49,1910.37,4461.00
951,923.60,1911.63,4522.00
952,923.70,1912.89,4388.00
953,923.81,1914.14,4454.00
954,923.92,1915.40,4421.00
955,924.03,1916.65,4442.00
956,924.13,1917.91,4364.00
957,924.24,1919.16,4311.00
958,924.35,1920.41,4379.00
959,924.45,1921.67,4312.00
960,924.56,1922.92,4311.00
961,924.67,1924.17,4294.00
962,924.78,1925.41,4282.00
963,924.88,1926.66,4224.00
964,924.99,1927.91,4250.00
965,925.09,1929.15,4238.00
966,925.20,1930.40,4208.00
967,925.31,1931.64,4261.00
968,925.41,1932.88,4210.00
969,925.52,1934.12,4066.00
970,925.63,1935.36,4109.00
971,925.73,1936.60,4135.00
972,925.84,1937.84,4073.00
973,925.95,1939.08,4020.00
974,926.05,1940.32,4069.00
975,926.16,1941.55,3993.00
976,926.26,1942.79,4019.00
977,926.37,1944.02,3923.00
978,926.47,1945.25,3981.00
979,926.58,1946.48,3942.00
980,926.69,1947.71,3895.00
981,926.79,1948.94,3890.00
982,926.90,1950.17,3940.00
983,927.00,1951.40,3883.00
984,927.11,1952.62,3851.00
985,927.21,1953.85,3902.00
986,927.32,1955.07,3877.00
987,927.42,1956.30,3830.00
988,927.53,1957.52,3827.00
989,927.63,1958.74,3833.00
990,927.74,1959.96,3763.00
991,927.84,1961.18,3795.00
992,927.95,1962.40,3736.00
993,928.05,1963.62,3721.00
994,928.16,1964.83,3690.00
995,928.26,1966.05,3683.00
996,928.37,1967.26,3696.00
997,928.47,1968.48,3656.00
998,928.58,1969.69,3674.00
999,928.68,1970.90,3647.00
1000,928.79,1972.11,3604.00
1001,928.89,1973.32,3634.00
1002,928.99,1974.53,3642.00
1003,929.10,1975.74,3591.00
1004,929.20,1976.94,3582.00
1005,929.31,1978.15,3489.00
1006,929.41,1979.35,3508.00
1007,929.52,1980.56,3500.00
1008,929.62,1981.76,3557.00
1009,929.72,1982.96,3533.00
1010,929.83,1984.16,3481.00
1011,929.93,1985.36,3470.00
1012,930.03,1986.56,3459.00
1013,930.14,1987.76,3442.00
1014,930.24,1988.95,3482.00
1015,930.34,1990.15,3426.00
1016,930.45,1991.34,3434.00
1017,930.55,1992.54,3411.00
1018,930.65,1993.73,3417.00
1019,930.76,1994.92,3376.00
1020,930.86,1996.11,3354.00
1021,930.96,1997.30,3367.00
1022,931.07,1998.49,3362.00
1023,931.17,1999.68,3348.00
