ENLIGHTEN Version,1.7.2
Measurement ID,20190905-082427-453518-WP-00340
Serial Number,WP-00340
Label,08:24:27 WP-00340
Integration Time,1000
Timestamp,2019-09-05 08:24:27.453518
Note,
Temperature,10.010854111966182
CCD C0,801.7174072265625
CCD C1,0.14122000336647034
CCD C2,-5.609700110653648e-06
CCD C3,-8.541699791919655e-09
CCD Offset,0
CCD Gain,1.9
Laser Wavelength,785
Laser Enable,True
Laser Power,100
Laser Temperature,0
Pixel Count,1024

Pixel,Wavelength,Wavenumber,Processed
0,801.72,265.63,830.00
1,801.86,267.83,1025.00
2,802.00,270.02,1339.00
3,802.14,272.22,1714.00
4,802.28,274.41,2205.00
5,802.42,276.60,2861.00
6,802.56,278.80,3639.00
7,802.71,280.99,4600.00
8,802.85,283.18,5797.00
9,802.99,285.37,7094.00
10,803.13,287.55,8760.00
11,803.27,289.74,10251.00
12,803.41,291.93,11864.00
13,803.55,294.11,13438.00
14,803.69,296.30,14787.00
15,803.83,298.48,15934.00
16,803.98,300.66,16916.00
17,804.12,302.84,17762.00
18,804.26,305.02,18051.00
19,804.40,307.20,18438.00
20,804.54,309.38,18498.00
21,804.68,311.56,18514.00
22,804.82,313.74,18523.00
23,804.96,315.91,18577.00
24,805.10,318.09,18702.00
25,805.24,320.26,18630.00
26,805.39,322.43,18725.00
27,805.53,324.61,18866.00
28,805.67,326.78,18995.00
29,805.81,328.95,19051.00
30,805.95,331.12,19107.00
31,806.09,333.28,19290.00
32,806.23,335.45,19240.00
33,806.37,337.62,19229.00
34,806.51,339.78,19284.00
35,806.65,341.95,19402.00
36,806.79,344.11,19563.00
37,806.93,346.27,19617.00
38,807.08,348.43,19626.00
39,807.22,350.59,19838.00
40,807.36,352.75,19849.00
41,807.50,354.91,19920.00
42,807.64,357.07,19942.00
43,807.78,359.23,19965.00
44,807.92,361.38,19977.00
45,808.06,363.54,19922.00
46,808.20,365.69,19860.00
47,808.34,367.84,19920.00
48,808.48,370.00,19801.00
49,808.62,372.15,19824.00
50,808.76,374.30,20006.00
51,808.90,376.45,19990.00
52,809.04,378.59,20051.00
53,809.19,380.74,20231.00
54,809.33,382.89,20191.00
55,809.47,385.03,20256.00
56,809.61,387.18,20446.00
57,809.75,389.32,20446.00
58,809.89,391.46,20587.00
59,810.03,393.60,20587.00
60,810.17,395.74,20697.00
61,810.31,397.88,20922.00
62,810.45,400.02,21033.00
63,810.59,402.16,21287.00
64,810.73,404.29,21394.00
65,810.87,406.43,21658.00
66,811.01,408.57,21881.00
67,811.15,410.70,22189.00
68,811.29,412.83,22537.00
69,811.43,414.96,23055.00
70,811.57,417.09,23443.00
71,811.71,419.22,23705.00
72,811.85,421.35,24055.00
73,811.99,423.48,24196.00
74,812.13,425.61,24632.00
75,812.27,427.73,25042.00
76,812.41,429.86,25499.00
77,812.55,431.98,25982.00
78,812.69,434.11,26386.00
79,812.83,436.23,26766.00
80,812.97,438.35,27278.00
81,813.11,440.47,27675.00
82,813.26,442.59,27998.00
83,813.40,444.71,28107.00
84,813.54,446.82,28076.00
85,813.68,448.94,27993.00
86,813.82,451.05,27666.00
87,813.96,453.17,27257.00
88,814.10,455.28,26677.00
89,814.24,457.39,25953.00
90,814.38,459.51,25387.00
91,814.52,461.62,24484.00
92,814.66,463.73,23943.00
93,814.80,465.83,23275.00
94,814.94,467.94,22714.00
95,815.08,470.05,22224.00
96,815.22,472.15,22075.00
97,815.36,474.26,21556.00
98,815.50,476.36,21251.00
99,815.63,478.47,21101.00
100,815.77,480.57,21078.00
101,815.91,482.67,20852.00
102,816.05,484.77,20835.00
103,816.19,486.87,20735.00
104,816.33,488.97,20577.00
105,816.47,491.06,20693.00
106,816.61,493.16,20532.00
107,816.75,495.25,20601.00
108,816.89,497.35,20517.00
109,817.03,499.44,20304.00
110,817.17,501.53,20395.00
111,817.31,503.62,20151.00
112,817.45,505.71,20030.00
113,817.59,507.80,20088.00
114,817.73,509.89,20089.00
115,817.87,511.98,19992.00
116,818.01,514.07,19895.00
117,818.15,516.15,19859.00
118,818.29,518.24,19710.00
119,818.43,520.32,19722.00
120,818.57,522.40,19702.00
121,818.71,524.48,19514.00
122,818.85,526.56,19636.00
123,818.99,528.64,19465.00
124,819.13,530.72,19417.00
125,819.27,532.80,19575.00
126,819.40,534.88,19474.00
127,819.54,536.95,19458.00
128,819.68,539.03,19526.00
129,819.82,541.10,19589.00
130,819.96,543.17,19594.00
131,820.10,545.24,19534.00
132,820.24,547.32,19745.00
133,820.38,549.39,19836.00
134,820.52,551.45,19726.00
135,820.66,553.52,19901.00
136,820.80,555.59,19963.00
137,820.94,557.66,20127.00
138,821.08,559.72,20174.00
139,821.22,561.78,20274.00
140,821.35,563.85,20363.00
141,821.49,565.91,20547.00
142,821.63,567.97,20764.00
143,821.77,570.03,20821.00
144,821.91,572.09,21179.00
145,822.05,574.15,21439.00
146,822.19,576.21,21654.00
147,822.33,578.26,22028.00
148,822.47,580.32,22328.00
149,822.61,582.37,22641.00
150,822.75,584.42,22979.00
151,822.88,586.48,23283.00
152,823.02,588.53,23560.00
153,823.16,590.58,24011.00
154,823.30,592.63,24339.00
155,823.44,594.68,24752.00
156,823.58,596.72,25330.00
157,823.72,598.77,25655.00
158,823.86,600.82,25940.00
159,824.00,602.86,26363.00
160,824.13,604.90,26688.00
161,824.27,606.95,26825.00
162,824.41,608.99,27023.00
163,824.55,611.03,26891.00
164,824.69,613.07,26650.00
165,824.83,615.11,26387.00
166,824.97,617.15,26018.00
167,825.10,619.18,25385.00
168,825.24,621.22,24767.00
169,825.38,623.25,24436.00
170,825.52,625.29,24044.00
171,825.66,627.32,23861.00
172,825.80,629.35,23684.00
173,825.94,631.38,23740.00
174,826.07,633.41,23482.00
175,826.21,635.44,23128.00
176,826.35,637.47,22773.00
177,826.49,639.50,21881.00
178,826.63,641.52,21301.00
179,826.77,643.55,20669.00
180,826.91,645.57,20414.00
181,827.04,647.60,20228.00
182,827.18,649.62,19990.00
183,827.32,651.64,19815.00
184,827.46,653.66,19785.00
185,827.60,655.68,19674.00
186,827.74,657.70,19695.00
187,827.87,659.71,19601.00
188,828.01,661.73,19604.00
189,828.15,663.75,19587.00
190,828.29,665.76,19598.00
191,828.43,667.77,19475.00
192,828.56,669.79,19318.00
193,828.70,671.80,19303.00
194,828.84,673.81,19278.00
195,828.98,675.82,19090.00
196,829.12,677.83,18922.00
197,829.25,679.83,19073.00
198,829.39,681.84,18900.00
199,829.53,683.84,18867.00
200,829.67,685.85,18759.00
201,829.81,687.85,18728.00
202,829.94,689.86,18742.00
203,830.08,691.86,18810.00
204,830.22,693.86,18765.00
205,830.36,695.86,18833.00
206,830.50,697.86,18730.00
207,830.63,699.85,18683.00
208,830.77,701.85,18793.00
209,830.91,703.85,18711.00
210,831.05,705.84,18772.00
211,831.18,707.84,18881.00
212,831.32,709.83,18877.00
213,831.46,711.82,18729.00
214,831.60,713.81,18732.00
215,831.74,715.80,18813.00
216,831.87,717.79,18804.00
217,832.01,719.78,18765.00
218,832.15,721.76,18753.00
219,832.29,723.75,18700.00
220,832.42,725.74,18548.00
221,832.56,727.72,18479.00
222,832.70,729.70,18500.00
223,832.84,731.68,18481.00
224,832.97,733.67,18447.00
225,833.11,735.65,18365.00
226,833.25,737.62,18350.00
227,833.39,739.60,18512.00
228,833.52,741.58,18603.00
229,833.66,743.56,18690.00
230,833.80,745.53,18997.00
231,833.93,747.51,19204.00
232,834.07,749.48,19461.00
233,834.21,751.45,19612.00
234,834.35,753.42,19596.00
235,834.48,755.39,19217.00
236,834.62,757.36,18955.00
237,834.76,759.33,18736.00
238,834.89,761.30,18284.00
239,835.03,763.26,18118.00
240,835.17,765.23,18128.00
241,835.31,767.19,18046.00
242,835.44,769.16,18095.00
243,835.58,771.12,18106.00
244,835.72,773.08,18105.00
245,835.85,775.04,18105.00
246,835.99,777.00,18460.00
247,836.13,778.96,18763.00
248,836.26,780.92,19293.00
249,836.40,782.87,19769.00
250,836.54,784.83,20363.00
251,836.68,786.78,20494.00
252,836.81,788.74,20357.00
253,836.95,790.69,20011.00
254,837.09,792.64,19349.00
255,837.22,794.59,18978.00
256,837.36,796.54,18754.00
257,837.50,798.49,18567.00
258,837.63,800.44,18474.00
259,837.77,802.38,18524.00
260,837.91,804.33,18574.00
261,838.04,806.27,18512.00
262,838.18,808.22,18659.00
263,838.31,810.16,18684.00
264,838.45,812.10,18910.00
265,838.59,814.04,19112.00
266,838.72,815.98,19288.00
267,838.86,817.92,19729.00
268,839.00,819.86,20073.00
269,839.13,821.80,20313.00
270,839.27,823.73,20639.00
271,839.41,825.67,20780.00
272,839.54,827.60,20936.00
273,839.68,829.53,21031.00
274,839.81,831.47,21003.00
275,839.95,833.40,21117.00
276,840.09,835.33,21230.00
277,840.22,837.26,21184.00
278,840.36,839.18,21061.00
279,840.50,841.11,20972.00
280,840.63,843.04,20647.00
281,840.77,844.96,20192.00
282,840.90,846.89,19839.00
283,841.04,848.81,19471.00
284,841.18,850.73,19219.00
285,841.31,852.65,19086.00
286,841.45,854.57,18780.00
287,841.58,856.49,18593.00
288,841.72,858.41,18559.00
289,841.86,860.33,18333.00
290,841.99,862.24,18299.00
291,842.13,864.16,18252.00
292,842.26,866.07,18053.00
293,842.40,867.99,18154.00
294,842.53,869.90,18135.00
295,842.67,871.81,18181.00
296,842.81,873.72,18097.00
297,842.94,875.63,18257.00
298,843.08,877.54,18303.00
299,843.21,879.44,18333.00
300,843.35,881.35,18512.00
301,843.48,883.26,18497.00
302,843.62,885.16,18472.00
303,843.75,887.06,18366.00
304,843.89,888.97,18414.00
305,844.03,890.87,18353.00
306,844.16,892.77,18204.00
307,844.30,894.67,17998.00
308,844.43,896.57,17861.00
309,844.57,898.46,17740.00
310,844.70,900.36,17496.00
311,844.84,902.26,17351.00
312,844.97,904.15,17296.00
313,845.11,906.04,17111.00
314,845.24,907.94,17199.00
315,845.38,909.83,17155.00
316,845.51,911.72,17209.00
317,845.65,913.61,16916.00
318,845.78,915.50,17001.00
319,845.92,917.38,17119.00
320,846.05,919.27,17100.00
321,846.19,921.16,17209.00
322,846.32,923.04,17117.00
323,846.46,924.92,17125.00
324,846.59,926.81,17053.00
325,846.73,928.69,16896.00
326,846.86,930.57,16918.00
327,847.00,932.45,16840.00
328,847.13,934.33,16834.00
329,847.27,936.20,17022.00
330,847.40,938.08,17076.00
331,847.54,939.96,17289.00
332,847.67,941.83,17378.00
333,847.81,943.71,17568.00
334,847.94,945.58,17509.00
335,848.08,947.45,17646.00
336,848.21,949.32,17524.00
337,848.34,951.19,17626.00
338,848.48,953.06,17524.00
339,848.61,954.93,17599.00
340,848.75,956.79,17435.00
341,848.88,958.66,17125.00
342,849.02,960.52,17013.00
343,849.15,962.39,16746.00
344,849.29,964.25,16535.00
345,849.42,966.11,16339.00
346,849.55,967.97,16273.00
347,849.69,969.83,16296.00
348,849.82,971.69,16248.00
349,849.96,973.55,16128.00
350,850.09,975.41,16058.00
351,850.23,977.26,16073.00
352,850.36,979.12,16072.00
353,850.49,980.97,16031.00
354,850.63,982.82,16183.00
355,850.76,984.68,16060.00
356,850.90,986.53,16084.00
357,851.03,988.38,16067.00
358,851.16,990.23,16211.00
359,851.30,992.07,16248.00
360,851.43,993.92,16433.00
361,851.56,995.77,16933.00
362,851.70,997.61,17390.00
363,851.83,999.46,17735.00
364,851.97,1001.30,18088.00
365,852.10,1003.14,18005.00
366,852.23,1004.98,17895.00
367,852.37,1006.82,17540.00
368,852.50,1008.66,17169.00
369,852.63,1010.50,16777.00
370,852.77,1012.34,16514.00
371,852.90,1014.17,16380.00
372,853.04,1016.01,16275.00
373,853.17,1017.84,16306.00
374,853.30,1019.68,16300.00
375,853.44,1021.51,16290.00
376,853.57,1023.34,16229.00
377,853.70,1025.17,16235.00
378,853.84,1027.00,16342.00
379,853.97,1028.83,16436.00
380,854.10,1030.65,16389.00
381,854.24,1032.48,16472.00
382,854.37,1034.31,16450.00
383,854.50,1036.13,16514.00
384,854.64,1037.95,16589.00
385,854.77,1039.77,16745.00
386,854.90,1041.60,16902.00
387,855.03,1043.42,17123.00
388,855.17,1045.24,17395.00
389,855.30,1047.05,17975.00
390,855.43,1048.87,18837.00
391,855.57,1050.69,20239.00
392,855.70,1052.50,23089.00
393,855.83,1054.32,27303.00
394,855.96,1056.13,33139.00
395,856.10,1057.94,39380.00
396,856.23,1059.75,44248.00
397,856.36,1061.56,46463.00
398,856.50,1063.37,45423.00
399,856.63,1065.18,41466.00
400,856.76,1066.99,35545.00
401,856.89,1068.80,29916.00
402,857.03,1070.60,25655.00
403,857.16,1072.41,23007.00
404,857.29,1074.21,21928.00
405,857.42,1076.01,21419.00
406,857.56,1077.81,21026.00
407,857.69,1079.61,20780.00
408,857.82,1081.41,20800.00
409,857.95,1083.21,20479.00
410,858.09,1085.01,20315.00
411,858.22,1086.81,20142.00
412,858.35,1088.60,19919.00
413,858.48,1090.40,19664.00
414,858.61,1092.19,19513.00
415,858.75,1093.98,19159.00
416,858.88,1095.77,18923.00
417,859.01,1097.56,18430.00
418,859.14,1099.35,18197.00
419,859.28,1101.14,18038.00
420,859.41,1102.93,17956.00
421,859.54,1104.72,17880.00
422,859.67,1106.50,18041.00
423,859.80,1108.29,18339.00
424,859.94,1110.07,18872.00
425,860.07,1111.85,19385.00
426,860.20,1113.63,20028.00
427,860.33,1115.41,20960.00
428,860.46,1117.19,22063.00
429,860.59,1118.97,24184.00
430,860.73,1120.75,27314.00
431,860.86,1122.53,32258.00
432,860.99,1124.30,38269.00
433,861.12,1126.08,43644.00
434,861.25,1127.85,46984.00
435,861.38,1129.62,47363.00
436,861.51,1131.39,44054.00
437,861.65,1133.17,38315.00
438,861.78,1134.93,31657.00
439,861.91,1136.70,25874.00
440,862.04,1138.47,21871.00
441,862.17,1140.24,19522.00
442,862.30,1142.00,17918.00
443,862.43,1143.77,17231.00
444,862.57,1145.53,16752.00
445,862.70,1147.29,16584.00
446,862.83,1149.06,16288.00
447,862.96,1150.82,16242.00
448,863.09,1152.58,16147.00
449,863.22,1154.34,16229.00
450,863.35,1156.09,16336.00
451,863.48,1157.85,16516.00
452,863.61,1159.61,16807.00
453,863.74,1161.36,17683.00
454,863.88,1163.11,18568.00
455,864.01,1164.87,19697.00
456,864.14,1166.62,20678.00
457,864.27,1168.37,21330.00
458,864.40,1170.12,21282.00
459,864.53,1171.87,20646.00
460,864.66,1173.62,19705.00
461,864.79,1175.36,18890.00
462,864.92,1177.11,18744.00
463,865.05,1178.85,19071.00
464,865.18,1180.60,19514.00
465,865.31,1182.34,20142.00
466,865.44,1184.08,20524.00
467,865.57,1185.82,20500.00
468,865.70,1187.56,20220.00
469,865.83,1189.30,19393.00
470,865.96,1191.04,18570.00
471,866.10,1192.78,17732.00
472,866.23,1194.51,17342.00
473,866.36,1196.25,16764.00
474,866.49,1197.98,16461.00
475,866.62,1199.71,16467.00
476,866.75,1201.45,16678.00
477,866.88,1203.18,16788.00
478,867.01,1204.91,16752.00
479,867.14,1206.64,16730.00
480,867.27,1208.36,16478.00
481,867.40,1210.09,16182.00
482,867.53,1211.82,15864.00
483,867.66,1213.54,15407.00
484,867.79,1215.27,15331.00
485,867.92,1216.99,15227.00
486,868.04,1218.71,15212.00
487,868.17,1220.43,15211.00
488,868.30,1222.15,15124.00
489,868.43,1223.87,14992.00
490,868.56,1225.59,14907.00
491,868.69,1227.31,14745.00
492,868.82,1229.02,14580.00
493,868.95,1230.74,14537.00
494,869.08,1232.45,14498.00
495,869.21,1234.16,14431.00
496,869.34,1235.88,14392.00
497,869.47,1237.59,14354.00
498,869.60,1239.30,14535.00
499,869.73,1241.01,14369.00
500,869.86,1242.71,14605.00
501,869.99,1244.42,14532.00
502,870.12,1246.13,14705.00
503,870.24,1247.83,14787.00
504,870.37,1249.54,14884.00
505,870.50,1251.24,15066.00
506,870.63,1252.94,15097.00
507,870.76,1254.64,15227.00
508,870.89,1256.34,15316.00
509,871.02,1258.04,15239.00
510,871.15,1259.74,15445.00
511,871.28,1261.44,15641.00
512,871.41,1263.13,15883.00
513,871.53,1264.83,16043.00
514,871.66,1266.52,16152.00
515,871.79,1268.22,16309.00
516,871.92,1269.91,16493.00
517,872.05,1271.60,16448.00
518,872.18,1273.29,16434.00
519,872.31,1274.98,16678.00
520,872.43,1276.67,16936.00
521,872.56,1278.35,17327.00
522,872.69,1280.04,17766.00
523,872.82,1281.73,18510.00
524,872.95,1283.41,19862.00
525,873.08,1285.09,22465.00
526,873.20,1286.78,27215.00
527,873.33,1288.46,34948.00
528,873.46,1290.14,44559.00
529,873.59,1291.82,53351.00
530,873.72,1293.49,56440.00
531,873.84,1295.17,59530.00
532,873.97,1296.85,56836.00
533,874.10,1298.52,48955.00
534,874.23,1300.20,39839.00
535,874.36,1301.87,32043.00
536,874.48,1303.54,26633.00
537,874.61,1305.21,23290.00
538,874.74,1306.88,21445.00
539,874.87,1308.55,20123.00
540,875.00,1310.22,19376.00
541,875.12,1311.89,18479.00
542,875.25,1313.56,17709.00
543,875.38,1315.22,17208.00
544,875.51,1316.89,16660.00
545,875.63,1318.55,16258.00
546,875.76,1320.21,15959.00
547,875.89,1321.87,15582.00
548,876.02,1323.53,15452.00
549,876.14,1325.19,15373.00
550,876.27,1326.85,14981.00
551,876.40,1328.51,14767.00
552,876.52,1330.16,14459.00
553,876.65,1331.82,14279.00
554,876.78,1333.47,14128.00
555,876.91,1335.13,13924.00
556,877.03,1336.78,13943.00
557,877.16,1338.43,14079.00
558,877.29,1340.08,14035.00
559,877.41,1341.73,14178.00
560,877.54,1343.38,14015.00
561,877.67,1345.03,14013.00
562,877.80,1346.67,13969.00
563,877.92,1348.32,13902.00
564,878.05,1349.96,13707.00
565,878.18,1351.61,13503.00
566,878.30,1353.25,13475.00
567,878.43,1354.89,13385.00
568,878.56,1356.53,13558.00
569,878.68,1358.17,13596.00
570,878.81,1359.81,13903.00
571,878.93,1361.45,14123.00
572,879.06,1363.08,14623.00
573,879.19,1364.72,15165.00
574,879.31,1366.35,15303.00
575,879.44,1367.99,15495.00
576,879.57,1369.62,15565.00
577,879.69,1371.25,15107.00
578,879.82,1372.88,14804.00
579,879.95,1374.51,14342.00
580,880.07,1376.14,13851.00
581,880.20,1377.77,13533.00
582,880.32,1379.39,13198.00
583,880.45,1381.02,12986.00
584,880.58,1382.64,12858.00
585,880.70,1384.27,12782.00
586,880.83,1385.89,12829.00
587,880.95,1387.51,12728.00
588,881.08,1389.13,12634.00
589,881.20,1390.75,12643.00
590,881.33,1392.37,12774.00
591,881.46,1393.99,12875.00
592,881.58,1395.60,12839.00
593,881.71,1397.22,12934.00
594,881.83,1398.83,13101.00
595,881.96,1400.45,13228.00
596,882.08,1402.06,13615.00
597,882.21,1403.67,14014.00
598,882.33,1405.28,14695.00
599,882.46,1406.89,15974.00
600,882.58,1408.50,18109.00
601,882.71,1410.11,20842.00
602,882.84,1411.71,24173.00
603,882.96,1413.32,27340.00
604,883.09,1414.92,29391.00
605,883.21,1416.53,30211.00
606,883.34,1418.13,29530.00
607,883.46,1419.73,28099.00
608,883.59,1421.33,26123.00
609,883.71,1422.93,24578.00
610,883.84,1424.53,23911.00
611,883.96,1426.13,24160.00
612,884.09,1427.72,25343.00
613,884.21,1429.32,27726.00
614,884.33,1430.91,31069.00
615,884.46,1432.51,35414.00
616,884.58,1434.10,40505.00
617,884.71,1435.69,45578.00
618,884.83,1437.28,49557.00
619,884.96,1438.87,52002.00
620,885.08,1440.46,52175.00
621,885.21,1442.05,50650.00
622,885.33,1443.64,47298.00
623,885.45,1445.22,43716.00
624,885.58,1446.81,40516.00
625,885.70,1448.39,37828.00
626,885.83,1449.97,36173.00
627,885.95,1451.55,35186.00
628,886.08,1453.14,34969.00
629,886.20,1454.72,35138.00
630,886.32,1456.29,35511.00
631,886.45,1457.87,35857.00
632,886.57,1459.45,36181.00
633,886.70,1461.02,36236.00
634,886.82,1462.60,35876.00
635,886.94,1464.17,34769.00
636,887.07,1465.75,33187.00
637,887.19,1467.32,31256.00
638,887.31,1468.89,28961.00
639,887.44,1470.46,26661.00
640,887.56,1472.03,24554.00
641,887.68,1473.59,22507.00
642,887.81,1475.16,20701.00
643,887.93,1476.73,19368.00
644,888.06,1478.29,18022.00
645,888.18,1479.86,17003.00
646,888.30,1481.42,16370.00
647,888.43,1482.98,15535.00
648,888.55,1484.54,14897.00
649,888.67,1486.10,14363.00
650,888.79,1487.66,13992.00
651,888.92,1489.22,13621.00
652,889.04,1490.77,13417.00
653,889.16,1492.33,13282.00
654,889.29,1493.88,13124.00
655,889.41,1495.44,12833.00
656,889.53,1496.99,12603.00
657,889.66,1498.54,12460.00
658,889.78,1500.09,12322.00
659,889.90,1501.64,12295.00
660,890.02,1503.19,12123.00
661,890.15,1504.74,12128.00
662,890.27,1506.29,11974.00
663,890.39,1507.83,11884.00
664,890.51,1509.38,11854.00
665,890.64,1510.92,11688.00
666,890.76,1512.47,11683.00
667,890.88,1514.01,11684.00
668,891.00,1515.55,11574.00
669,891.13,1517.09,11475.00
670,891.25,1518.63,11393.00
671,891.37,1520.16,11501.00
672,891.49,1521.70,11353.00
673,891.61,1523.24,11365.00
674,891.74,1524.77,11306.00
675,891.86,1526.31,11256.00
676,891.98,1527.84,11248.00
677,892.10,1529.37,11274.00
678,892.22,1530.90,11214.00
679,892.35,1532.43,11157.00
680,892.47,1533.96,11269.00
681,892.59,1535.49,11204.00
682,892.71,1537.02,11089.00
683,892.83,1538.54,10967.00
684,892.95,1540.07,11153.00
685,893.08,1541.59,11066.00
686,893.20,1543.11,11057.00
687,893.32,1544.64,11110.00
688,893.44,1546.16,10992.00
689,893.56,1547.68,10931.00
690,893.68,1549.20,10975.00
691,893.80,1550.71,10877.00
692,893.92,1552.23,10948.00
693,894.05,1553.75,10840.00
694,894.17,1555.26,10832.00
695,894.29,1556.78,10777.00
696,894.41,1558.29,10774.00
697,894.53,1559.80,10782.00
698,894.65,1561.31,10708.00
699,894.77,1562.82,10656.00
700,894.89,1564.33,10678.00
701,895.01,1565.84,10664.00
702,895.13,1567.35,10617.00
703,895.26,1568.85,10733.00
704,895.38,1570.36,10847.00
705,895.50,1571.86,10810.00
706,895.62,1573.36,10790.00
707,895.74,1574.87,10647.00
708,895.86,1576.37,10735.00
709,895.98,1577.87,10556.00
710,896.10,1579.37,10423.00
711,896.22,1580.87,10344.00
712,896.34,1582.36,10267.00
713,896.46,1583.86,10231.00
714,896.58,1585.35,10136.00
715,896.70,1586.85,10090.00
716,896.82,1588.34,10005.00
717,896.94,1589.83,10109.00
718,897.06,1591.32,10083.00
719,897.18,1592.81,10160.00
720,897.30,1594.30,10078.00
721,897.42,1595.79,10092.00
722,897.54,1597.28,10233.00
723,897.66,1598.76,10280.00
724,897.78,1600.25,10434.00
725,897.90,1601.73,10575.00
726,898.02,1603.22,10830.00
727,898.14,1604.70,11313.00
728,898.26,1606.18,11718.00
729,898.38,1607.66,11990.00
730,898.50,1609.14,12405.00
731,898.62,1610.62,12567.00
732,898.73,1612.10,12617.00
733,898.85,1613.57,12424.00
734,898.97,1615.05,11950.00
735,899.09,1616.52,11503.00
736,899.21,1617.99,10991.00
737,899.33,1619.47,10572.00
738,899.45,1620.94,10286.00
739,899.57,1622.41,9966.00
740,899.69,1623.88,9822.00
741,899.81,1625.35,9632.00
742,899.92,1626.81,9460.00
743,900.04,1628.28,9428.00
744,900.16,1629.74,9396.00
745,900.28,1631.21,9303.00
746,900.40,1632.67,9245.00
747,900.52,1634.13,9202.00
748,900.64,1635.60,9137.00
749,900.76,1637.06,9151.00
750,900.87,1638.51,9045.00
751,900.99,1639.97,9003.00
752,901.11,1641.43,9043.00
753,901.23,1642.89,8933.00
754,901.35,1644.34,8895.00
755,901.46,1645.80,8857.00
756,901.58,1647.25,8851.00
757,901.70,1648.70,8837.00
758,901.82,1650.15,8779.00
759,901.94,1651.60,8682.00
760,902.05,1653.05,8764.00
761,902.17,1654.50,8642.00
762,902.29,1655.95,8557.00
763,902.41,1657.40,8615.00
764,902.53,1658.84,8588.00
765,902.64,1660.28,8551.00
766,902.76,1661.73,8634.00
767,902.88,1663.17,8570.00
768,903.00,1664.61,8504.00
769,903.11,1666.05,8551.00
770,903.23,1667.49,8444.00
771,903.35,1668.93,8530.00
772,903.47,1670.37,8351.00
773,903.58,1671.80,8363.00
774,903.70,1673.24,8464.00
775,903.82,1674.67,8405.00
776,903.93,1676.11,8334.00
777,904.05,1677.54,8347.00
778,904.17,1678.97,8378.00
779,904.29,1680.40,8313.00
780,904.40,1681.83,8230.00
781,904.52,1683.26,8270.00
782,904.64,1684.69,8239.00
783,904.75,1686.11,8235.00
784,904.87,1687.54,8178.00
785,904.99,1688.96,8134.00
786,905.10,1690.39,8165.00
787,905.22,1691.81,8081.00
788,905.34,1693.23,8101.00
789,905.45,1694.65,8019.00
790,905.57,1696.07,8020.00
791,905.69,1697.49,8007.00
792,905.80,1698.91,7975.00
793,905.92,1700.32,7861.00
794,906.03,1701.74,8009.00
795,906.15,1703.15,7892.00
796,906.27,1704.57,7802.00
797,906.38,1705.98,7767.00
798,906.50,1707.39,7833.00
799,906.61,1708.80,7866.00
800,906.73,1710.21,7872.00
801,906.85,1711.62,7877.00
802,906.96,1713.03,7759.00
803,907.08,1714.43,7727.00
804,907.19,1715.84,7742.00
805,907.31,1717.24,7676.00
806,907.42,1718.65,7610.00
807,907.54,1720.05,7689.00
808,907.65,1721.45,7545.00
809,907.77,1722.85,7650.00
810,907.89,1724.25,7613.00
811,908.00,1725.65,7480.00
812,908.12,1727.05,7474.00
813,908.23,1728.44,7428.00
814,908.35,1729.84,7484.00
815,908.46,1731.23,7453.00
816,908.58,1732.63,7388.00
817,908.69,1734.02,7399.00
818,908.81,1735.41,7332.00
819,908.92,1736.80,7328.00
820,909.04,1738.19,7301.00
821,909.15,1739.58,7231.00
822,909.27,1740.97,7255.00
823,909.38,1742.35,7270.00
824,909.49,1743.74,7240.00
825,909.61,1745.12,7268.00
826,909.72,1746.51,7174.00
827,909.84,1747.89,7131.00
828,909.95,1749.27,7121.00
829,910.07,1750.65,7153.00
830,910.18,1752.03,7073.00
831,910.30,1753.41,7061.00
832,910.41,1754.79,7019.00
833,910.52,1756.17,7027.00
834,910.64,1757.54,6978.00
835,910.75,1758.92,6963.00
836,910.87,1760.29,6976.00
837,910.98,1761.66,6919.00
838,911.09,1763.03,6896.00
839,911.21,1764.41,6972.00
840,911.32,1765.78,6938.00
841,911.43,1767.14,6850.00
842,911.55,1768.51,6836.00
843,911.66,1769.88,6810.00
844,911.78,1771.24,6824.00
845,911.89,1772.61,6756.00
846,912.00,1773.97,6723.00
847,912.12,1775.34,6757.00
848,912.23,1776.70,6650.00
849,912.34,1778.06,6698.00
850,912.46,1779.42,6697.00
851,912.57,1780.78,6612.00
852,912.68,1782.13,6609.00
853,912.79,1783.49,6628.00
854,912.91,1784.85,6532.00
855,913.02,1786.20,6554.00
856,913.13,1787.56,6519.00
857,913.25,1788.91,6493.00
858,913.36,1790.26,6462.00
859,913.47,1791.61,6414.00
860,913.58,1792.96,6414.00
861,913.70,1794.31,6333.00
862,913.81,1795.66,6415.00
863,913.92,1797.00,6329.00
864,914.03,1798.35,6264.00
865,914.15,1799.69,6268.00
866,914.26,1801.04,6308.00
867,914.37,1802.38,6236.00
868,914.48,1803.72,6163.00
869,914.60,1805.06,6175.00
870,914.71,1806.40,6093.00
871,914.82,1807.74,6115.00
872,914.93,1809.08,6108.00
873,915.04,1810.42,6125.00
874,915.16,1811.75,6063.00
875,915.27,1813.09,6008.00
876,915.38,1814.42,6036.00
877,915.49,1815.76,5960.00
878,915.60,1817.09,5941.00
879,915.71,1818.42,5935.00
880,915.83,1819.75,5912.00
881,915.94,1821.08,5835.00
882,916.05,1822.40,5871.00
883,916.16,1823.73,5850.00
884,916.27,1825.06,5735.00
885,916.38,1826.38,5835.00
886,916.49,1827.71,5743.00
887,916.61,1829.03,5785.00
888,916.72,1830.35,5749.00
889,916.83,1831.67,5648.00
890,916.94,1832.99,5688.00
891,917.05,1834.31,5645.00
892,917.16,1835.63,5623.00
893,917.27,1836.95,5591.00
894,917.38,1838.26,5551.00
895,917.49,1839.58,5538.00
896,917.60,1840.89,5526.00
897,917.71,1842.20,5613.00
898,917.82,1843.52,5549.00
899,917.93,1844.83,5431.00
900,918.04,1846.14,5471.00
901,918.15,1847.45,5406.00
902,918.27,1848.75,5449.00
903,918.38,1850.06,5386.00
904,918.49,1851.37,5386.00
905,918.60,1852.67,5315.00
906,918.71,1853.98,5320.00
907,918.82,1855.28,5243.00
908,918.93,1856.58,5266.00
909,919.04,1857.88,5226.00
910,919.15,1859.18,5158.00
911,919.26,1860.48,5215.00
912,919.36,1861.78,5176.00
913,919.47,1863.08,5180.00
914,919.58,1864.37,5216.00
915,919.69,1865.67,5106.00
916,919.80,1866.96,5164.00
917,919.91,1868.26,5049.00
918,920.02,1869.55,5028.00
919,920.13,1870.84,5028.00
920,920.24,1872.13,5005.00
921,920.35,1873.42,4975.00
922,920.46,1874.71,5027.00
923,920.57,1875.99,4950.00
924,920.68,1877.28,4864.00
925,920.79,1878.56,4961.00
926,920.89,1879.85,4819.00
927,921.00,1881.13,4847.00
928,921.11,1882.41,4864.00
929,921.22,1883.69,4870.00
930,921.33,1884.97,4825.00
931,921.44,1886.25,4773.00
932,921.55,1887.53,4780.00
933,921.66,1888.81,4734.00
934,921.76,1890.09,4764.00
935,921.87,1891.36,4704.00
936,921.98,1892.63,4678.00
937,922.09,1893.91,4655.00
938,922.20,1895.18,4663.00
939,922.30,1896.45,4632.00
940,922.41,1897.72,4543.00
941,922.52,1898.99,4558.00
942,922.63,1900.26,4440.00
943,922.74,1901.53,4475.00
944,922.84,1902.79,4491.00
945,922.95,1904.06,4504.00
946,923.06,1905.32,4423.00
947,923.17,1906.58,4459.00
948,923.28,1907.85,4358.00
949,923.38,1909.11,4372.00
950,923.49,1910.37,4341.00
951,923.60,1911.63,4370.00
952,923.70,1912.89,4322.00
953,923.81,1914.14,4379.00
954,923.92,1915.40,4299.00
955,924.03,1916.65,4246.00
956,924.13,1917.91,4234.00
957,924.24,1919.16,4175.00
958,924.35,1920.41,4227.00
959,924.45,1921.67,4229.00
960,924.56,1922.92,4186.00
961,924.67,1924.17,4172.00
962,924.78,1925.41,4134.00
963,924.88,1926.66,4141.00
964,924.99,1927.91,4082.00
965,925.09,1929.15,4109.00
966,925.20,1930.40,4088.00
967,925.31,1931.64,3988.00
968,925.41,1932.88,4010.00
969,925.52,1934.12,4010.00
970,925.63,1935.36,3931.00
971,925.73,1936.60,3921.00
972,925.84,1937.84,3982.00
973,925.95,1939.08,3957.00
974,926.05,1940.32,3919.00
975,926.16,1941.55,3917.00
976,926.26,1942.79,3897.00
977,926.37,1944.02,3837.00
978,926.47,1945.25,3844.00
979,926.58,1946.48,3857.00
980,926.69,1947.71,3816.00
981,926.79,1948.94,3795.00
982,926.90,1950.17,3763.00
983,927.00,1951.40,3799.00
984,927.11,1952.62,3757.00
985,927.21,1953.85,3756.00
986,927.32,1955.07,3736.00
987,927.42,1956.30,3698.00
988,927.53,1957.52,3675.00
989,927.63,1958.74,3668.00
990,927.74,1959.96,3597.00
991,927.84,1961.18,3601.00
992,927.95,1962.40,3614.00
993,928.05,1963.62,3651.00
994,928.16,1964.83,3634.00
995,928.26,1966.05,3577.00
996,928.37,1967.26,3529.00
997,928.47,1968.48,3491.00
998,928.58,1969.69,3482.00
999,928.68,1970.90,3568.00
1000,928.79,1972.11,3516.00
1001,928.89,1973.32,3461.00
1002,928.99,1974.53,3485.00
1003,929.10,1975.74,3449.00
1004,929.20,1976.94,3390.00
1005,929.31,1978.15,3458.00
1006,929.41,1979.35,3480.00
1007,929.52,1980.56,3369.00
1008,929.62,1981.76,3424.00
1009,929.72,1982.96,3377.00
1010,929.83,1984.16,3367.00
1011,929.93,1985.36,3357.00
1012,930.03,1986.56,3359.00
1013,930.14,1987.76,3314.00
1014,930.24,1988.95,3337.00
1015,930.34,1990.15,3314.00
1016,930.45,1991.34,3274.00
1017,930.55,1992.54,3308.00
1018,930.65,1993.73,3261.00
1019,930.76,1994.92,3247.00
1020,930.86,1996.11,3308.00
1021,930.96,1997.30,3236.00
1022,931.07,1998.49,3200.00
1023,931.17,1999.68,3234.00
