ENLIGHTEN Version,1.7.2
Measurement ID,20190716-203641-260584-WP-00340
Serial Number,WP-00340
Label,Ibuprofen
Integration Time,500
Timestamp,2019-07-16 20:36:41.260584
Note,
Temperature,-99
CCD C0,801.7174072265625
CCD C1,0.14122000336647034
CCD C2,-5.609700110653648e-06
CCD C3,-8.541699791919655e-09
CCD Offset,0
CCD Gain,1.9
Laser Wavelength,785.0
Laser Enable,True
Laser Power,100.0
Laser Temperature,-99
Pixel Count,1024

Wavenumber,Processed
265.63,433.80
267.83,502.60
270.02,575.60
272.22,679.60
274.41,817.60
276.60,984.20
278.80,1208.00
280.99,1487.80
283.18,1795.40
285.37,2192.20
287.55,2611.40
289.74,3063.80
291.93,3594.00
294.11,4167.40
296.30,4811.20
298.48,5565.00
300.66,6336.60
302.84,7008.60
305.02,7416.20
307.20,7556.60
309.38,7413.00
311.56,7045.60
313.74,6566.20
315.91,6118.40
318.09,5922.80
320.26,5800.40
322.43,5824.00
324.61,5925.80
326.78,5969.40
328.95,5981.80
331.12,5993.80
333.28,5855.60
335.45,5736.00
337.62,5666.40
339.78,5610.00
341.95,5648.40
344.11,5812.00
346.27,6088.40
348.43,6483.40
350.59,6975.20
352.75,7541.80
354.91,8046.60
357.07,8170.20
359.23,8294.00
361.38,7990.20
363.54,7358.60
365.69,6737.20
367.84,6147.80
370.00,5705.00
372.15,5561.20
374.30,5559.40
376.45,5648.40
378.59,5768.80
380.74,5865.60
382.89,5901.60
385.03,5776.80
387.18,5622.40
389.32,5445.20
391.46,5266.40
393.60,5147.80
395.74,5100.80
397.88,5134.00
400.02,5187.20
402.16,5318.40
404.29,5605.80
406.43,6108.20
408.57,6787.60
410.70,7775.60
412.83,8951.40
414.96,10088.40
417.09,10837.80
419.22,10992.40
421.35,10740.20
423.48,10064.60
425.61,9332.60
427.73,8736.60
429.86,8318.40
431.98,7967.60
434.11,7526.00
436.23,7001.80
438.35,6445.80
440.47,5907.60
442.59,5454.20
444.71,5131.40
446.82,4882.80
448.94,4741.80
451.05,4598.80
453.17,4528.00
455.28,4449.20
457.39,4394.60
459.51,4367.80
461.62,4315.60
463.73,4329.00
465.83,4282.20
467.94,4344.60
470.05,4319.20
472.15,4338.00
474.26,4342.20
476.36,4371.80
478.47,4447.60
480.57,4527.40
482.67,4632.60
484.77,4856.80
486.87,5158.80
488.97,5547.20
491.06,5974.80
493.16,6347.80
495.25,6541.80
497.35,6475.20
499.44,6215.40
501.53,5796.40
503.62,5464.60
505.71,5236.60
507.80,5262.60
509.89,5377.20
511.98,5482.60
514.07,5430.40
516.15,5189.00
518.24,4741.00
520.32,4213.40
522.40,3744.60
524.48,3381.60
526.56,3171.40
528.64,3004.80
530.72,2889.60
532.80,2805.40
534.88,2749.80
536.95,2672.60
539.03,2664.00
541.10,2641.80
543.17,2639.80
545.24,2625.00
547.32,2646.40
549.39,2647.80
551.45,2664.20
553.52,2667.60
555.59,2657.00
557.66,2643.40
559.72,2607.20
561.78,2631.00
563.85,2610.20
565.91,2636.80
567.97,2662.80
570.03,2748.60
572.09,2886.00
574.15,3082.60
576.21,3429.00
578.26,3866.00
580.32,4323.40
582.37,4768.00
584.42,4982.00
586.48,4980.00
588.53,4718.60
590.58,4356.00
592.63,3868.00
594.68,3435.80
596.72,3137.80
598.77,2893.80
600.82,2734.20
602.86,2643.60
604.90,2586.00
606.95,2549.20
608.99,2501.20
611.03,2534.20
613.07,2504.20
615.11,2533.00
617.15,2621.00
619.18,2803.80
621.22,3099.00
623.25,3747.00
625.29,5088.40
627.32,7463.60
629.35,10652.00
631.38,13701.20
633.41,15497.20
635.44,14620.20
637.47,13743.00
639.50,10643.00
641.52,7539.40
643.55,5278.20
645.57,4103.60
647.60,3615.20
649.62,3488.60
651.64,3536.80
653.66,3685.40
655.68,3966.80
657.70,4294.60
659.71,4703.40
661.73,5105.20
663.75,5492.00
665.76,5698.80
667.77,5796.20
669.79,5644.80
671.80,5325.80
673.81,4868.00
675.82,4363.60
677.83,3927.60
679.83,3537.60
681.84,3282.20
683.84,3064.00
685.85,2931.00
687.85,2865.40
689.86,2807.20
691.86,2852.40
693.86,2878.80
695.86,2969.00
697.86,3129.80
699.85,3423.20
701.85,3685.00
703.85,3935.00
705.84,4105.20
707.84,4092.60
709.83,3921.80
711.82,3592.20
713.81,3243.60
715.80,2958.00
717.79,2737.80
719.78,2646.40
721.76,2627.00
723.75,2610.00
725.74,2665.20
727.72,2712.40
729.70,2796.00
731.68,2930.20
733.67,3105.00
735.65,3374.60
737.62,3806.00
739.60,4530.00
741.58,5706.20
743.56,7442.60
745.53,9760.40
747.51,12314.80
749.48,14244.00
751.45,15170.80
753.42,14668.80
755.39,12984.80
757.36,10593.20
759.33,8305.00
761.30,6600.80
763.26,5681.80
765.23,5262.60
767.19,5054.00
769.16,5083.60
771.12,5146.00
773.08,5298.60
775.04,5989.80
777.00,7661.60
778.96,10711.60
780.92,14930.40
782.87,19182.00
784.83,21982.00
786.78,22803.20
788.74,21206.40
790.69,17733.60
792.64,13958.00
794.59,10875.00
796.54,9042.80
798.49,8183.80
800.44,7849.20
802.38,7925.60
804.33,8002.60
806.27,8299.80
808.22,8901.20
810.16,9789.80
812.10,11205.00
814.04,13074.80
815.98,15513.60
817.92,18114.00
819.86,20721.60
821.80,22855.20
823.73,24331.60
825.67,25437.60
827.60,25924.60
829.53,26496.60
831.47,27142.60
833.40,27738.20
835.33,28333.60
837.26,28396.60
839.18,27641.00
841.11,26057.40
843.04,23690.80
844.96,20769.40
846.89,17764.00
848.81,14966.20
850.73,12680.20
852.65,10826.20
854.57,9405.40
856.49,8188.00
858.41,7145.00
860.33,6268.20
862.24,5532.00
864.16,5031.00
866.07,4737.60
867.99,4712.20
869.90,4917.80
871.81,5300.60
873.72,5911.60
875.63,6644.00
877.54,7295.60
879.44,7920.40
881.35,8391.60
883.26,8633.20
885.16,8792.60
887.06,8813.20
888.97,8704.60
890.87,8430.00
892.77,7935.80
894.67,7203.20
896.57,6439.40
898.46,5661.00
900.36,4958.40
902.26,4456.80
904.15,4044.20
906.04,3805.80
907.94,3610.00
909.83,3563.00
911.72,3637.20
913.61,3833.20
915.50,4185.40
917.38,4585.20
919.27,4845.60
921.16,4960.60
923.04,4899.40
924.92,4630.60
926.81,4341.20
928.69,4078.60
930.57,4055.60
932.45,4205.80
934.33,4737.60
936.20,5706.20
938.08,7032.80
939.96,8502.60
941.83,9898.20
943.71,10954.40
945.58,11642.00
947.45,12224.20
949.32,12747.20
951.19,13366.60
953.06,13708.80
954.93,13461.20
956.79,12442.60
958.66,10836.60
960.52,8900.20
962.39,7091.20
964.25,5883.40
966.11,5223.40
967.97,4948.80
969.83,4784.40
971.69,4646.40
973.55,4441.00
975.41,4169.40
977.26,3939.20
979.12,3827.60
980.97,3780.40
982.82,3852.80
984.68,3973.40
986.53,4219.80
988.38,4564.20
990.23,5239.80
992.07,6307.60
993.92,8089.20
995.77,10711.00
997.61,13885.80
999.46,16805.00
1001.30,18602.20
1003.14,18657.60
1004.98,17110.00
1006.82,14197.20
1008.66,10978.20
1010.50,8233.20
1012.34,6418.40
1014.17,5358.40
1016.01,4833.00
1017.84,4589.80
1019.68,4472.60
1021.51,4376.40
1023.34,4290.60
1025.17,4209.20
1027.00,4109.00
1028.83,4044.60
1030.65,4016.40
1032.48,3974.60
1034.31,3990.40
1036.13,4027.20
1037.95,4046.60
1039.77,4090.40
1041.60,4133.60
1043.42,4187.80
1045.24,4313.40
1047.05,4458.00
1048.87,4661.20
1050.69,4983.20
1052.50,5448.40
1054.32,5863.60
1056.13,6224.80
1057.94,6430.60
1059.75,6495.20
1061.56,6489.60
1063.37,6596.20
1065.18,6938.20
1066.99,7473.40
1068.80,8074.60
1070.60,8467.60
1072.41,8537.00
1074.21,8308.80
1076.01,7845.40
1077.81,7280.00
1079.61,6888.80
1081.41,6705.20
1083.21,6714.40
1085.01,7050.20
1086.81,7620.20
1088.60,8339.20
1090.40,9067.00
1092.19,9639.40
1093.98,9891.80
1095.77,9746.20
1097.56,9357.40
1099.35,8867.20
1101.14,8487.20
1102.93,8431.60
1104.72,8795.00
1106.50,9719.20
1108.29,11137.40
1110.07,13066.20
1111.85,15107.20
1113.63,16899.00
1115.41,18124.20
1117.19,18472.40
1118.97,17945.20
1120.75,16710.20
1122.53,15069.20
1124.30,13329.60
1126.08,11672.40
1127.85,10236.20
1129.62,9046.40
1131.39,8149.20
1133.17,7579.80
1134.93,7244.00
1136.70,6994.00
1138.47,6911.40
1140.24,6911.00
1142.00,6889.00
1143.77,6996.60
1145.53,7011.00
1147.29,7089.60
1149.06,7230.20
1150.82,7340.60
1152.58,7505.60
1154.34,7736.20
1156.09,7998.40
1157.85,8377.00
1159.61,9031.80
1161.36,9715.60
1163.11,10593.60
1164.87,11529.00
1166.62,12337.80
1168.37,13011.80
1170.12,13735.20
1171.87,14633.60
1173.62,16287.80
1175.36,19522.20
1177.11,25062.20
1178.85,32630.00
1180.60,40665.80
1182.34,46945.80
1184.08,50532.80
1185.82,50680.20
1187.56,47745.60
1189.30,42610.00
1191.04,36850.60
1192.78,31670.60
1194.51,27516.20
1196.25,24653.80
1197.98,23135.00
1199.71,23401.20
1201.45,24767.60
1203.18,26327.20
1204.91,27390.40
1206.64,27027.40
1208.36,25457.60
1210.09,22923.00
1211.82,20153.60
1213.54,18015.80
1215.27,16818.20
1216.99,16448.40
1218.71,16485.00
1220.43,16439.80
1222.15,16021.00
1223.87,15309.60
1225.59,14401.20
1227.31,13406.00
1229.02,12629.60
1230.74,12101.80
1232.45,11860.00
1234.16,11771.40
1235.88,11956.60
1237.59,12141.80
1239.30,12561.00
1241.01,13083.60
1242.71,13726.60
1244.42,14479.00
1246.13,15272.60
1247.83,16042.20
1249.54,16668.60
1251.24,17029.60
1252.94,17083.40
1254.64,16918.00
1256.34,16465.80
1258.04,16085.20
1259.74,15673.80
1261.44,15392.20
1263.13,15276.80
1264.83,15263.80
1266.52,15394.20
1268.22,15572.40
1269.91,15954.20
1271.60,16392.00
1273.29,17094.60
1274.98,18020.40
1276.67,19230.40
1278.35,20649.40
1280.04,22096.20
1281.73,23299.00
1283.41,24118.60
1285.09,24502.00
1286.78,24711.00
1288.46,24868.80
1290.14,24990.20
1291.82,24996.00
1293.49,24676.60
1295.17,24357.20
1296.85,23741.60
1298.52,23062.00
1300.20,22427.80
1301.87,22276.60
1303.54,22362.80
1305.21,22688.00
1306.88,22739.80
1308.55,22769.60
1310.22,22682.80
1311.89,22528.00
1313.56,22340.80
1315.22,22392.60
1316.89,22593.40
1318.55,23225.00
1320.21,24071.80
1321.87,24998.60
1323.53,25870.80
1325.19,26587.40
1326.85,26935.60
1328.51,26946.20
1330.16,26683.00
1331.82,26509.60
1333.47,26379.20
1335.13,26599.00
1336.78,27298.00
1338.43,28273.60
1340.08,29298.40
1341.73,30100.40
1343.38,30519.40
1345.03,30317.20
1346.67,29562.00
1348.32,28632.80
1349.96,27542.20
1351.61,26466.80
1353.25,25731.80
1354.89,25187.00
1356.53,24921.40
1358.17,25074.40
1359.81,25319.00
1361.45,25655.60
1363.08,25990.20
1364.72,26125.40
1366.35,25962.40
1367.99,25584.60
1369.62,25078.20
1371.25,24465.00
1372.88,24036.80
1374.51,23627.20
1376.14,23428.40
1377.77,23416.00
1379.39,23331.20
1381.02,23170.40
1382.64,23277.00
1384.27,23086.40
1385.89,23107.20
1387.51,22984.20
1389.13,22905.40
1390.75,22876.40
1392.37,22857.40
1393.99,22949.40
1395.60,22919.60
1397.22,23072.40
1398.83,23205.00
1400.45,23367.00
1402.06,23754.00
1403.67,24066.60
1405.28,24503.60
1406.89,25030.80
1408.50,25596.80
1410.11,26299.20
1411.71,26928.60
1413.32,27539.00
1414.92,28117.80
1416.53,28417.20
1418.13,28497.20
1419.73,28487.00
1421.33,27960.60
1422.93,27425.00
1424.53,26764.40
1426.13,26131.80
1427.72,25627.00
1429.32,25336.40
1430.91,25128.40
1432.51,25403.00
1434.10,25765.40
1435.69,26313.40
1437.28,27011.60
1438.87,27678.80
1440.46,28627.80
1442.05,30011.40
1443.64,31705.40
1445.22,33543.20
1446.81,35258.40
1448.39,36399.40
1449.97,36838.00
1451.55,36124.20
1453.14,35178.60
1454.72,34081.80
1456.29,33398.60
1457.87,33121.60
1459.45,33027.40
1461.02,32992.00
1462.60,32655.80
1464.17,31711.80
1465.75,30346.60
1467.32,28962.20
1468.89,27883.20
1470.46,27058.20
1472.03,26797.20
1473.59,26717.40
1475.16,26581.60
1476.73,26452.20
1478.29,25947.40
1479.86,25297.80
1481.42,24659.60
1482.98,24022.40
1484.54,23426.00
1486.10,23118.60
1487.66,22883.20
1489.22,22647.80
1490.77,22574.40
1492.33,22536.80
1493.88,22544.40
1495.44,22479.40
1496.99,22542.80
1498.54,22431.60
1500.09,22377.00
1501.64,22430.80
1503.19,22475.80
1504.74,22380.00
1506.29,22381.00
1507.83,22402.20
1509.38,22455.60
1510.92,22399.00
1512.47,22322.60
1514.01,22348.80
1515.55,22299.60
1517.09,22231.20
1518.63,22249.80
1520.16,22156.80
1521.70,22127.80
1523.24,22114.20
1524.77,22019.20
1526.31,21991.20
1527.84,21942.40
1529.37,21954.20
1530.90,21905.40
1532.43,21952.60
1533.96,21972.60
1535.49,22023.40
1537.02,22008.60
1538.54,21997.60
1540.07,22062.40
1541.59,22082.20
1543.11,22019.80
1544.64,21940.20
1546.16,21898.60
1547.68,21716.80
1549.20,21755.20
1550.71,21537.20
1552.23,21478.60
1553.75,21296.20
1555.26,21227.80
1556.78,21121.80
1558.29,21160.00
1559.80,21170.00
1561.31,21096.00
1562.82,21142.80
1564.33,21328.60
1565.84,21630.80
1567.35,22154.60
1568.85,22775.80
1570.36,23417.60
1571.86,24025.60
1573.36,24186.00
1574.87,24030.00
1576.37,23619.80
1577.87,22900.60
1579.37,22148.20
1580.87,21403.00
1582.36,20904.00
1583.86,20535.60
1585.35,20355.80
1586.85,20290.40
1588.34,20333.20
1589.83,20387.80
1591.32,20540.00
1592.81,20724.60
1594.30,21195.40
1595.79,21783.00
1597.28,22643.20
1598.76,23741.00
1600.25,25338.80
1601.73,27665.80
1603.22,30593.60
1604.70,34459.00
1606.18,38587.40
1607.66,42703.40
1609.14,45978.40
1610.62,47672.80
1612.10,47385.80
1613.57,45438.60
1615.05,41888.20
1616.52,37684.80
1617.99,33361.80
1619.47,29727.40
1620.94,26862.80
1622.41,24676.20
1623.88,23193.40
1625.35,22004.40
1626.81,21267.40
1628.28,20702.80
1629.74,20274.40
1631.21,19909.80
1632.67,19625.80
1634.13,19458.40
1635.60,19237.00
1637.06,19088.00
1638.51,18962.00
1639.97,18802.80
1641.43,18737.80
1642.89,18608.80
1644.34,18585.80
1645.80,18521.60
1647.25,18356.40
1648.70,18267.00
1650.15,18261.40
1651.60,18148.00
1653.05,18047.40
1654.50,17983.20
1655.95,17956.60
1657.40,17908.60
1658.84,17903.40
1660.28,17782.40
1661.73,17849.20
1663.17,17685.60
1664.61,17689.00
1666.05,17586.20
1667.49,17615.40
1668.93,17521.20
1670.37,17404.20
1671.80,17347.40
1673.24,17413.20
1674.67,17275.20
1676.11,17180.00
1677.54,17146.20
1678.97,17111.40
1680.40,17076.80
1681.83,16938.60
1683.26,16832.60
1684.69,16761.20
1686.11,16683.20
1687.54,16659.60
1688.96,16532.80
1690.39,16469.00
1691.81,16396.00
1693.23,16350.20
1694.65,16204.20
1696.07,16170.60
1697.49,16047.20
1698.91,15937.40
1700.32,15873.60
1701.74,15849.80
1703.15,15693.40
1704.57,15625.60
1705.98,15542.60
1707.39,15467.20
1708.80,15445.40
1710.21,15319.40
1711.62,15250.60
1713.03,15120.60
1714.43,14999.60
1715.84,14925.20
1717.24,14796.60
1718.65,14724.40
1720.05,14622.40
1721.45,14513.60
1722.85,14408.60
1724.25,14379.00
1725.65,14305.00
1727.05,14176.40
1728.44,14058.80
1729.84,14004.80
1731.23,13918.20
1732.63,13835.80
1734.02,13740.40
1735.41,13625.40
1736.80,13561.00
1738.19,13502.40
1739.58,13396.60
1740.97,13338.00
1742.35,13290.80
1743.74,13168.40
1745.12,13080.00
1746.51,13056.40
1747.89,12968.40
1749.27,12883.60
1750.65,12841.20
1752.03,12743.60
1753.41,12713.80
1754.79,12629.00
1756.17,12537.40
1757.54,12470.40
1758.92,12481.80
1760.29,12385.80
1761.66,12309.40
1763.03,12231.60
1764.41,12188.80
1765.78,12095.20
1767.14,12067.40
1768.51,12009.60
1769.88,11916.80
1771.24,11933.00
1772.61,11852.00
1773.97,11752.20
1775.34,11677.00
1776.70,11657.20
1778.06,11565.00
1779.42,11533.40
1780.78,11477.80
1782.13,11381.20
1783.49,11337.00
1784.85,11295.60
1786.20,11238.40
1787.56,11121.40
1788.91,11157.40
1790.26,11121.60
1791.61,11032.00
1792.96,10950.40
1794.31,10920.80
1795.66,10884.00
1797.00,10873.80
1798.35,10754.80
1799.69,10691.00
1801.04,10697.00
1802.38,10634.00
1803.72,10575.60
1805.06,10568.20
1806.40,10496.20
1807.74,10470.80
1809.08,10461.40
1810.42,10434.60
1811.75,10357.60
1813.09,10325.80
1814.42,10268.60
1815.76,10272.80
1817.09,10222.60
1818.42,10215.40
1819.75,10118.80
1821.08,10131.60
1822.40,10124.80
1823.73,10084.60
1825.06,9990.00
1826.38,9993.60
1827.71,9960.60
1829.03,9958.00
1830.35,9897.20
1831.67,9904.20
1832.99,9836.20
1834.31,9812.20
1835.63,9813.00
1836.95,9788.60
1838.26,9714.20
1839.58,9699.40
1840.89,9673.00
1842.20,9629.00
1843.52,9608.80
1844.83,9623.40
1846.14,9546.20
1847.45,9473.60
1848.75,9492.40
1850.06,9455.20
1851.37,9433.00
1852.67,9403.80
1853.98,9359.00
1855.28,9307.80
1856.58,9309.00
1857.88,9253.00
1859.18,9278.60
1860.48,9233.80
1861.78,9180.60
1863.08,9130.00
1864.37,9133.40
1865.67,9114.20
1866.96,9113.80
1868.26,9027.80
1869.55,9016.80
1870.84,8975.40
1872.13,8999.80
1873.42,8901.60
1874.71,8901.00
1875.99,8888.60
1877.28,8794.00
1878.56,8844.80
1879.85,8783.20
1881.13,8768.40
1882.41,8672.40
1883.69,8664.00
1884.97,8649.40
1886.25,8626.40
1887.53,8556.40
1888.81,8528.00
1890.09,8501.40
1891.36,8437.80
1892.63,8417.00
1893.91,8342.20
1895.18,8310.20
1896.45,8268.00
1897.72,8232.40
1898.99,8204.00
1900.26,8139.60
1901.53,8128.40
1902.79,8113.80
1904.06,8007.00
1905.32,7999.00
1906.58,7909.20
1907.85,7845.80
1909.11,7817.80
1910.37,7814.40
1911.63,7745.00
1912.89,7720.60
1914.14,7663.80
1915.40,7661.80
1916.65,7580.60
1917.91,7500.20
1919.16,7440.80
1920.41,7418.80
1921.67,7398.80
1922.92,7319.20
1924.17,7253.20
1925.41,7216.80
1926.66,7205.40
1927.91,7152.80
1929.15,7133.60
1930.40,7079.40
1931.64,7060.20
1932.88,6972.40
1934.12,6945.00
1935.36,6957.40
1936.60,6872.80
1937.84,6816.60
1939.08,6764.40
1940.32,6722.40
1941.55,6685.40
1942.79,6665.60
1944.02,6608.80
1945.25,6555.80
1946.48,6509.60
1947.71,6469.40
1948.94,6442.40
1950.17,6414.20
1951.40,6350.00
1952.62,6312.60
1953.85,6233.60
1955.07,6196.40
1956.30,6154.00
1957.52,6135.60
1958.74,6032.20
1959.96,6011.60
1961.18,5945.00
1962.40,5910.00
1963.62,5868.60
1964.83,5805.00
1966.05,5738.80
1967.26,5707.60
1968.48,5637.40
1969.69,5577.40
1970.90,5519.80
1972.11,5480.80
1973.32,5433.60
1974.53,5391.20
1975.74,5321.20
1976.94,5293.40
1978.15,5234.20
1979.35,5194.00
1980.56,5156.40
1981.76,5124.00
1982.96,5066.40
1984.16,5006.60
1985.36,4942.80
1986.56,4916.80
1987.76,4882.80
1988.95,4829.40
1990.15,4786.00
1991.34,4774.60
1992.54,4706.20
1993.73,4665.00
1994.92,4620.80
1996.11,4572.60
1997.30,4533.00
1998.49,4470.40
1999.68,4452.40
